cond,subj,blk,trial,stim,resp,rt
1,18,1,1,9,2,3030
1,18,1,2,36,1,2843
1,18,1,3,19,2,1381
1,18,1,4,40,2,1187
1,18,1,5,25,2,1393
1,18,1,6,13,3,1024
1,18,1,7,47,1,1415
1,18,1,8,2,2,1053
1,18,2,1,30,1,1747
1,18,2,2,37,2,1028
1,18,2,3,20,2,966
1,18,2,4,35,2,743
1,18,2,5,15,3,1477
1,18,2,6,45,1,1539
1,18,2,7,11,1,2520
1,18,2,8,5,1,1224
1,18,3,1,44,2,861
1,18,3,2,42,2,1135
1,18,3,3,22,1,750
1,18,3,4,6,1,715
1,18,3,5,12,1,612
1,18,3,6,28,2,957
1,18,3,7,34,3,903
1,18,3,8,18,1,618
1,18,4,1,4,2,619
1,18,4,2,32,1,604
1,18,4,3,24,3,813
1,18,4,4,10,3,969
1,18,4,5,46,2,707
1,18,4,6,38,2,1039
1,18,4,7,14,2,700
1,18,4,8,26,3,655
1,18,5,1,43,2,557
1,18,5,2,17,1,1323
1,18,5,3,29,3,780
1,18,5,4,31,1,1244
1,18,5,5,39,3,706
1,18,5,6,21,2,684
1,18,5,7,3,3,517
1,18,5,8,7,1,759
1,18,6,1,27,1,1371
1,18,6,2,16,2,715
1,18,6,3,48,2,1103
1,18,6,4,8,2,840
1,18,6,5,41,2,672
1,18,6,6,1,3,535
1,18,6,7,33,2,568
1,18,6,8,23,2,729
1,18,7,1,28,1,826
1,18,7,2,3,3,620
1,18,7,3,14,2,478
1,18,7,4,22,3,470
1,18,7,5,12,3,524
1,18,7,6,37,3,655
1,18,7,7,44,3,760
1,18,7,8,36,3,619
1,18,8,1,19,3,635
1,18,8,2,47,3,486
1,18,8,3,9,2,640
1,18,8,4,29,3,510
1,18,8,5,34,3,559
1,18,8,6,16,2,701
1,18,8,7,40,2,1185
1,18,8,8,5,1,1045
1,18,9,1,23,2,478
1,18,9,2,7,1,689
1,18,9,3,32,1,906
1,18,9,4,2,1,1092
1,18,9,5,46,2,630
1,18,9,6,27,2,613
1,18,9,7,41,2,567
1,18,9,8,17,1,615
1,18,10,1,39,3,569
1,18,10,2,26,3,677
1,18,10,3,31,2,465
1,18,10,4,45,2,475
1,18,10,5,20,2,449
1,18,10,6,6,1,576
1,18,10,7,10,3,552
1,18,10,8,13,3,530
1,18,11,1,25,2,627
1,18,11,2,4,2,498
1,18,11,3,8,2,542
1,18,11,4,38,2,463
1,18,11,5,18,1,671
1,18,11,6,43,2,467
1,18,11,7,35,2,496
1,18,11,8,21,2,501
1,18,12,1,42,2,402
1,18,12,2,15,3,527
1,18,12,3,48,2,517
1,18,12,4,24,3,635
1,18,12,5,30,2,542
1,18,12,6,33,2,567
1,18,12,7,11,2,519
1,18,12,8,1,3,466
1,20,1,1,3,3,1841
1,20,1,2,35,2,848
1,20,1,3,28,2,566
1,20,1,4,7,3,621
1,20,1,5,41,1,646
1,20,1,6,13,3,345
1,20,1,7,44,2,543
1,20,1,8,22,2,594
1,20,2,1,4,2,341
1,20,2,2,45,1,473
1,20,2,3,12,2,481
1,20,2,4,19,3,518
1,20,2,5,15,2,631
1,20,2,6,31,2,511
1,20,2,7,29,2,479
1,20,2,8,40,3,279
1,20,3,1,48,2,405
1,20,3,2,27,2,384
1,20,3,3,9,2,361
1,20,3,4,21,2,679
1,20,3,5,16,2,732
1,20,3,6,34,2,245
1,20,3,7,5,2,143
1,20,3,8,42,2,547
1,20,4,1,33,1,188
1,20,4,2,38,2,15
1,20,4,3,18,3,169
1,20,4,4,1,2,112
1,20,4,5,23,1,559
1,20,4,6,11,2,161
1,20,4,7,46,2,559
1,20,4,8,25,2,478
1,20,5,1,24,2,546
1,20,5,2,6,3,833
1,20,5,3,47,2,658
1,20,5,4,26,2,711
1,20,5,5,32,2,285
1,20,5,6,8,2,370
1,20,5,7,39,3,338
1,20,5,8,14,2,102
1,20,6,1,37,3,396
1,20,6,2,2,3,233
1,20,6,3,10,3,463
1,20,6,4,17,2,245
1,20,6,5,30,1,246
1,20,6,6,36,2,365
1,20,6,7,20,3,115
1,20,6,8,43,3,145
1,20,7,1,19,3,414
1,20,7,2,47,2,181
1,20,7,3,28,1,397
1,20,7,4,38,3,211
1,20,7,5,9,2,297
1,20,7,6,15,1,65
1,20,7,7,34,3,137
1,20,7,8,5,2,462
1,20,8,1,42,3,171
1,20,8,2,21,2,282
1,20,8,3,6,3,369
1,20,8,4,26,2,148
1,20,8,5,35,2,488
1,20,8,6,11,3,193
1,20,8,7,13,2,18
1,20,8,8,46,3,44
1,20,9,1,3,2,76
1,20,9,2,14,3,47
1,20,9,3,10,2,156
1,20,9,4,39,2,1125
1,20,9,5,20,2,735
1,20,9,6,33,1,602
1,20,9,7,45,1,87
1,20,9,8,30,3,147
1,20,10,1,1,3,284
1,20,10,2,40,3,67
1,20,10,3,24,2,212
1,20,10,4,32,3,33
1,20,10,5,16,3,289
1,20,10,6,44,3,329
1,20,10,7,25,3,9
1,20,10,8,7,3,232
1,20,11,1,17,2,179
1,20,11,2,8,2,142
1,20,11,3,29,3,180
1,20,11,4,48,2,18
1,20,11,5,4,1,249
1,20,11,6,41,2,52
1,20,11,7,23,3,198
1,20,11,8,36,2,193
1,20,12,1,2,3,83
1,20,12,2,27,3,52
1,20,12,3,22,1,81
1,20,12,4,18,3,143
1,20,12,5,31,1,644
1,20,12,6,43,3,210
1,20,12,7,12,2,181
1,20,12,8,37,3,186
1,22,1,1,18,1,801
1,22,1,2,31,2,2141
1,22,1,3,24,1,979
1,22,1,4,30,2,769
1,22,1,5,7,1,720
1,22,1,6,39,3,505
1,22,1,7,6,3,877
1,22,1,8,47,1,480
1,22,2,1,4,1,725
1,22,2,2,32,3,940
1,22,2,3,20,1,451
1,22,2,4,48,1,534
1,22,2,5,38,2,582
1,22,2,6,10,3,894
1,22,2,7,17,2,619
1,22,2,8,25,1,1176
1,22,3,1,44,2,762
1,22,3,2,21,2,824
1,22,3,3,33,1,657
1,22,3,4,41,1,481
1,22,3,5,15,2,664
1,22,3,6,27,1,537
1,22,3,7,1,1,962
1,22,3,8,8,2,798
1,22,4,1,46,2,581
1,22,4,2,3,1,475
1,22,4,3,22,2,633
1,22,4,4,14,2,786
1,22,4,5,35,3,925
1,22,4,6,29,3,690
1,22,4,7,9,2,1018
1,22,4,8,40,2,563
1,22,5,1,36,2,497
1,22,5,2,45,3,487
1,22,5,3,16,2,500
1,22,5,4,42,1,484
1,22,5,5,26,3,442
1,22,5,6,12,3,940
1,22,5,7,23,2,460
1,22,5,8,5,1,1189
1,22,6,1,28,1,493
1,22,6,2,43,3,514
1,22,6,3,11,2,713
1,22,6,4,37,3,472
1,22,6,5,19,1,424
1,22,6,6,34,1,994
1,22,6,7,13,1,461
1,22,6,8,2,1,541
1,22,7,1,17,2,566
1,22,7,2,4,3,1115
1,22,7,3,38,2,526
1,22,7,4,8,1,461
1,22,7,5,26,3,463
1,22,7,6,21,2,481
1,22,7,7,36,3,972
1,22,7,8,48,1,484
1,22,8,1,12,3,488
1,22,8,2,40,2,430
1,22,8,3,30,2,503
1,22,8,4,13,1,461
1,22,8,5,45,3,748
1,22,8,6,1,1,512
1,22,8,7,32,3,646
1,22,8,8,24,3,479
1,22,9,1,9,2,646
1,22,9,2,3,2,544
1,22,9,3,16,3,581
1,22,9,4,42,1,536
1,22,9,5,47,1,505
1,22,9,6,31,1,657
1,22,9,7,25,1,509
1,22,9,8,20,2,622
1,22,10,1,10,3,497
1,22,10,2,39,3,480
1,22,10,3,46,2,442
1,22,10,4,35,3,906
1,22,10,5,22,3,498
1,22,10,6,28,1,513
1,22,10,7,14,2,1297
1,22,10,8,6,3,566
1,22,11,1,43,3,444
1,22,11,2,41,1,413
1,22,11,3,18,1,856
1,22,11,4,27,1,564
1,22,11,5,11,2,520
1,22,11,6,34,3,502
1,22,11,7,23,2,501
1,22,11,8,2,1,467
1,22,12,1,7,1,446
1,22,12,2,15,2,454
1,22,12,3,37,3,446
1,22,12,4,5,2,912
1,22,12,5,29,3,500
1,22,12,6,19,1,427
1,22,12,7,44,2,525
1,22,12,8,33,1,763
1,23,1,1,26,3,1422
1,23,1,2,44,3,1094
1,23,1,3,23,2,1162
1,23,1,4,8,1,2180
1,23,1,5,32,1,1420
1,23,1,6,5,1,731
1,23,1,7,38,2,1250
1,23,1,8,18,1,1167
1,23,2,1,4,2,692
1,23,2,2,40,2,620
1,23,2,3,12,1,1290
1,23,2,4,47,1,1429
1,23,2,5,13,3,1112
1,23,2,6,22,3,1275
1,23,2,7,30,2,721
1,23,2,8,34,1,505
1,23,3,1,1,3,827
1,23,3,2,36,3,903
1,23,3,3,14,2,749
1,23,3,4,9,3,683
1,23,3,5,20,2,1428
1,23,3,6,48,2,597
1,23,3,7,41,3,640
1,23,3,8,28,3,969
1,23,4,1,10,2,892
1,23,4,2,25,2,552
1,23,4,3,42,2,542
1,23,4,4,31,2,610
1,23,4,5,17,2,619
1,23,4,6,3,3,751
1,23,4,7,45,1,683
1,23,4,8,21,1,1076
1,23,5,1,11,1,609
1,23,5,2,29,3,399
1,23,5,3,24,3,621
1,23,5,4,46,2,676
1,23,5,5,6,1,838
1,23,5,6,35,3,536
1,23,5,7,37,3,614
1,23,5,8,15,3,644
1,23,6,1,27,1,533
1,23,6,2,43,3,781
1,23,6,3,2,2,579
1,23,6,4,19,3,1120
1,23,6,5,16,3,378
1,23,6,6,33,1,645
1,23,6,7,39,3,594
1,23,6,8,7,3,584
1,23,7,1,23,2,610
1,23,7,2,31,2,466
1,23,7,3,26,3,389
1,23,7,4,18,3,501
1,23,7,5,42,1,563
1,23,7,6,11,3,470
1,23,7,7,48,2,594
1,23,7,8,1,3,363
1,23,8,1,7,3,419
1,23,8,2,20,1,384
1,23,8,3,16,3,302
1,23,8,4,36,2,475
1,23,8,5,6,1,737
1,23,8,6,30,2,339
1,23,8,7,45,1,715
1,23,8,8,40,3,479
1,23,9,1,19,1,816
1,23,9,2,14,1,343
1,23,9,3,47,3,608
1,23,9,4,29,3,336
1,23,9,5,33,1,278
1,23,9,6,5,1,471
1,23,9,7,10,3,325
1,23,9,8,37,2,677
1,23,10,1,46,1,675
1,23,10,2,34,1,649
1,23,10,3,39,3,474
1,23,10,4,13,1,618
1,23,10,5,3,1,364
1,23,10,6,27,1,438
1,23,10,7,8,3,495
1,23,10,8,22,3,426
1,23,11,1,43,1,633
1,23,11,2,12,1,674
1,23,11,3,38,2,505
1,23,11,4,17,2,478
1,23,11,5,4,2,562
1,23,11,6,28,2,395
1,23,11,7,35,3,420
1,23,11,8,24,3,757
1,23,12,1,25,2,571
1,23,12,2,44,3,596
1,23,12,3,32,3,718
1,23,12,4,15,2,462
1,23,12,5,2,2,524
1,23,12,6,9,2,532
1,23,12,7,41,2,644
1,23,12,8,21,3,801
1,24,1,1,4,2,1730
1,24,1,2,26,3,970
1,24,1,3,45,1,1093
1,24,1,4,35,2,2357
1,24,1,5,23,2,790
1,24,1,6,17,1,802
1,24,1,7,37,3,1752
1,24,1,8,12,3,710
1,24,2,1,39,3,900
1,24,2,2,16,2,805
1,24,2,3,8,1,755
1,24,2,4,31,1,880
1,24,2,5,47,3,863
1,24,2,6,20,1,614
1,24,2,7,30,2,1605
1,24,2,8,3,3,748
1,24,3,1,13,3,725
1,24,3,2,32,1,2993
1,24,3,3,7,1,856
1,24,3,4,38,1,1317
1,24,3,5,29,3,747
1,24,3,6,44,3,716
1,24,3,7,5,1,782
1,24,3,8,19,1,873
1,24,4,1,28,1,1420
1,24,4,2,10,3,612
1,24,4,3,2,2,983
1,24,4,4,40,2,860
1,24,4,5,21,2,582
1,24,4,6,36,3,640
1,24,4,7,48,2,1178
1,24,4,8,14,2,634
1,24,5,1,27,1,696
1,24,5,2,9,2,726
1,24,5,3,22,3,687
1,24,5,4,33,2,606
1,24,5,5,1,3,734
1,24,5,6,42,1,1211
1,24,5,7,18,1,666
1,24,5,8,43,2,857
1,24,6,1,34,3,996
1,24,6,2,6,1,933
1,24,6,3,46,1,617
1,24,6,4,41,1,910
1,24,6,5,24,3,596
1,24,6,6,25,2,898
1,24,6,7,11,2,572
1,24,6,8,15,3,1636
1,24,7,1,9,2,496
1,24,7,2,47,3,541
1,24,7,3,14,2,742
1,24,7,4,36,3,837
1,24,7,5,1,3,681
1,24,7,6,39,2,715
1,24,7,7,30,2,788
1,24,7,8,19,1,780
1,24,8,1,18,1,1140
1,24,8,2,34,2,968
1,24,8,3,45,1,652
1,24,8,4,10,3,713
1,24,8,5,25,2,652
1,24,8,6,40,2,1641
1,24,8,7,24,3,744
1,24,8,8,5,1,699
1,24,9,1,35,2,584
1,24,9,2,13,3,784
1,24,9,3,2,2,632
1,24,9,4,38,2,711
1,24,9,5,20,1,731
1,24,9,6,48,3,1477
1,24,9,7,26,3,1003
1,24,9,8,8,1,625
1,24,10,1,16,2,610
1,24,10,2,23,2,1159
1,24,10,3,11,2,513
1,24,10,4,4,2,1179
1,24,10,5,41,1,950
1,24,10,6,28,1,975
1,24,10,7,33,1,1303
1,24,10,8,43,3,1877
1,24,11,1,17,1,748
1,24,11,2,7,1,628
1,24,11,3,37,3,882
1,24,11,4,46,1,1030
1,24,11,5,29,3,750
1,24,11,6,21,2,1279
1,24,11,7,31,1,759
1,24,11,8,6,1,937
1,24,12,1,42,1,674
1,24,12,2,44,3,664
1,24,12,3,22,3,553
1,24,12,4,3,2,1206
1,24,12,5,12,3,749
1,24,12,6,27,1,703
1,24,12,7,15,3,596
1,24,12,8,32,1,914
1,25,1,1,18,2,4799
1,25,1,2,11,2,985
1,25,1,3,20,1,1118
1,25,1,4,39,3,2958
1,25,1,5,34,3,1278
1,25,1,6,25,2,855
1,25,1,7,5,2,1487
1,25,1,8,44,1,847
1,25,2,1,42,3,1506
1,25,2,2,24,3,795
1,25,2,3,2,2,749
1,25,2,4,28,1,672
1,25,2,5,9,2,542
1,25,2,6,32,1,918
1,25,2,7,14,2,1314
1,25,2,8,45,2,853
1,25,3,1,17,2,848
1,25,3,2,21,2,531
1,25,3,3,37,3,1599
1,25,3,4,46,3,987
1,25,3,5,12,3,724
1,25,3,6,30,2,908
1,25,3,7,35,2,554
1,25,3,8,6,2,1226
1,25,4,1,26,3,838
1,25,4,2,1,1,653
1,25,4,3,33,2,652
1,25,4,4,10,3,588
1,25,4,5,48,2,821
1,25,4,6,16,2,953
1,25,4,7,41,1,1313
1,25,4,8,19,1,526
1,25,5,1,40,3,2205
1,25,5,2,22,3,1403
1,25,5,3,4,2,640
1,25,5,4,47,2,899
1,25,5,5,13,1,817
1,25,5,6,36,2,570
1,25,5,7,29,3,792
1,25,5,8,8,1,638
1,25,6,1,3,2,838
1,25,6,2,31,2,1374
1,25,6,3,15,2,500
1,25,6,4,27,1,1004
1,25,6,5,38,2,654
1,25,6,6,7,3,1192
1,25,6,7,43,2,947
1,25,6,8,23,2,512
1,25,7,1,12,3,906
1,25,7,2,33,2,680
1,25,7,3,1,3,791
1,25,7,4,42,3,2189
1,25,7,5,16,2,554
1,25,7,6,21,2,499
1,25,7,7,45,2,2643
1,25,7,8,30,2,487
1,25,8,1,36,3,1202
1,25,8,2,38,2,629
1,25,8,3,24,3,904
1,25,8,4,2,2,739
1,25,8,5,15,2,536
1,25,8,6,25,2,448
1,25,8,7,7,1,823
1,25,8,8,43,2,794
1,25,9,1,13,3,1040
1,25,9,2,4,2,610
1,25,9,3,11,2,654
1,25,9,4,39,3,686
1,25,9,5,34,2,562
1,25,9,6,23,2,413
1,25,9,7,29,3,724
1,25,9,8,48,2,1436
1,25,10,1,20,1,625
1,25,10,2,14,1,503
1,25,10,3,44,3,967
1,25,10,4,32,1,597
1,25,10,5,26,3,961
1,25,10,6,9,2,627
1,25,10,7,3,3,815
1,25,10,8,40,2,551
1,25,11,1,28,1,818
1,25,11,2,5,1,769
1,25,11,3,19,3,1208
1,25,11,4,17,1,497
1,25,11,5,37,3,868
1,25,11,6,10,3,603
1,25,11,7,35,3,1451
1,25,11,8,46,2,550
1,25,12,1,31,2,494
1,25,12,2,8,1,574
1,25,12,3,47,1,1020
1,25,12,4,18,1,690
1,25,12,5,41,1,1416
1,25,12,6,6,1,1105
1,25,12,7,27,1,550
1,25,12,8,22,2,803
1,26,1,1,18,1,1100
1,26,1,2,29,3,1711
1,26,1,3,10,3,1298
1,26,1,4,44,3,615
1,26,1,5,24,1,639
1,26,1,6,4,2,802
1,26,1,7,37,3,1575
1,26,1,8,32,1,1151
1,26,2,1,21,2,1468
1,26,2,2,3,3,804
1,26,2,3,43,2,593
1,26,2,4,34,3,778
1,26,2,5,7,3,895
1,26,2,6,13,3,710
1,26,2,7,40,2,1972
1,26,2,8,26,1,1194
1,26,3,1,22,1,1231
1,26,3,2,16,1,936
1,26,3,3,41,3,896
1,26,3,4,48,2,612
1,26,3,5,31,1,646
1,26,3,6,28,1,1477
1,26,3,7,1,3,675
1,26,3,8,11,2,852
1,26,4,1,46,2,1270
1,26,4,2,2,2,606
1,26,4,3,20,1,1332
1,26,4,4,25,2,953
1,26,4,5,12,3,993
1,26,4,6,42,1,1686
1,26,4,7,17,1,1682
1,26,4,8,33,2,721
1,26,5,1,47,2,1031
1,26,5,2,19,2,1157
1,26,5,3,36,3,852
1,26,5,4,5,2,1238
1,26,5,5,38,2,859
1,26,5,6,14,2,1073
1,26,5,7,8,2,766
1,26,5,8,30,1,1104
1,26,6,1,23,2,1172
1,26,6,2,45,1,494
1,26,6,3,6,1,728
1,26,6,4,15,3,609
1,26,6,5,27,1,586
1,26,6,6,39,1,786
1,26,6,7,35,2,706
1,26,6,8,9,3,637
1,26,7,1,42,2,1290
1,26,7,2,46,1,952
1,26,7,3,11,2,588
1,26,7,4,24,3,679
1,26,7,5,25,2,542
1,26,7,6,2,2,561
1,26,7,7,17,1,1371
1,26,7,8,36,2,1326
1,26,8,1,4,2,1124
1,26,8,2,37,1,1198
1,26,8,3,12,3,577
1,26,8,4,43,2,590
1,26,8,5,21,2,482
1,26,8,6,34,3,505
1,26,8,7,30,2,792
1,26,8,8,16,3,714
1,26,9,1,32,2,1029
1,26,9,2,9,2,449
1,26,9,3,23,3,993
1,26,9,4,28,2,781
1,26,9,5,6,1,471
1,26,9,6,44,3,823
1,26,9,7,15,3,706
1,26,9,8,38,1,752
1,26,10,1,19,1,532
1,26,10,2,18,3,833
1,26,10,3,33,2,589
1,26,10,4,1,3,664
1,26,10,5,45,1,690
1,26,10,6,40,3,1016
1,26,10,7,10,3,617
1,26,10,8,27,3,1084
1,26,11,1,31,1,601
1,26,11,2,47,1,669
1,26,11,3,3,2,477
1,26,11,4,41,3,510
1,26,11,5,7,1,438
1,26,11,6,13,3,623
1,26,11,7,26,2,619
1,26,11,8,22,1,623
1,26,12,1,48,2,714
1,26,12,2,39,1,1018
1,26,12,3,35,2,397
1,26,12,4,5,1,809
1,26,12,5,14,1,949
1,26,12,6,29,1,645
1,26,12,7,8,3,463
1,26,12,8,20,3,1066
1,32,1,1,15,1,5640
1,32,1,2,30,2,1274
1,32,1,3,40,2,1629
1,32,1,4,3,3,1062
1,32,1,5,46,1,1131
1,32,1,6,20,3,507
1,32,1,7,32,2,153
1,32,1,8,8,1,130
1,32,2,1,39,3,961
1,32,2,2,4,2,634
1,32,2,3,33,2,553
1,32,2,4,14,2,463
1,32,2,5,28,2,724
1,32,2,6,19,3,823
1,32,2,7,48,2,537
1,32,2,8,12,1,772
1,32,3,1,36,2,483
1,32,3,2,45,3,567
1,32,3,3,37,2,1100
1,32,3,4,24,1,641
1,32,3,5,10,3,2055
1,32,3,6,29,1,1188
1,32,3,7,17,1,964
1,32,3,8,1,3,806
1,32,4,1,47,2,1734
1,32,4,2,6,1,601
1,32,4,3,18,1,733
1,32,4,4,42,2,775
1,32,4,5,26,3,1699
1,32,4,6,7,2,1105
1,32,4,7,34,2,1091
1,32,4,8,23,2,679
1,32,5,1,43,2,980
1,32,5,2,21,3,1315
1,32,5,3,27,2,551
1,32,5,4,31,1,761
1,32,5,5,5,1,629
1,32,5,6,41,2,1221
1,32,5,7,9,2,990
1,32,5,8,13,3,607
1,32,6,1,38,2,463
1,32,6,2,25,2,716
1,32,6,3,11,3,736
1,32,6,4,35,2,406
1,32,6,5,2,2,435
1,32,6,6,44,3,642
1,32,6,7,22,2,1069
1,32,6,8,16,2,518
1,32,7,1,41,3,633
1,32,7,2,46,1,538
1,32,7,3,36,3,580
1,32,7,4,5,1,487
1,32,7,5,28,1,601
1,32,7,6,12,1,558
1,32,7,7,13,3,674
1,32,7,8,23,2,921
1,32,8,1,33,2,813
1,32,8,2,26,3,336
1,32,8,3,20,2,477
1,32,8,4,47,3,569
1,32,8,5,39,3,488
1,32,8,6,3,3,541
1,32,8,7,16,2,404
1,32,8,8,8,2,453
1,32,9,1,42,2,430
1,32,9,2,43,3,551
1,32,9,3,11,1,997
1,32,9,4,31,3,600
1,32,9,5,25,3,557
1,32,9,6,24,1,1071
1,32,9,7,14,2,332
1,32,9,8,1,3,444
1,32,10,1,15,3,498
1,32,10,2,29,2,175
1,32,10,3,38,3,123
1,32,10,4,19,1,134
1,32,10,5,45,2,120
1,32,10,6,6,1,178
1,32,10,7,32,3,51
1,32,10,8,7,3,416
1,32,11,1,17,1,392
1,32,11,2,44,3,1828
1,32,11,3,10,2,669
1,32,11,4,22,3,854
1,32,11,5,27,1,3211
1,32,11,6,2,2,636
1,32,11,7,40,2,647
1,32,11,8,34,2,1232
1,32,12,1,37,2,632
1,32,12,2,9,3,1114
1,32,12,3,30,1,698
1,32,12,4,4,2,479
1,32,12,5,48,2,393
1,32,12,6,21,1,493
1,32,12,7,18,1,664
1,32,12,8,35,2,701
1,33,1,1,36,3,1347
1,33,1,2,12,3,898
1,33,1,3,18,1,543
1,33,1,4,42,1,1903
1,33,1,5,27,1,1363
1,33,1,6,5,1,1275
1,33,1,7,43,2,776
1,33,1,8,23,2,1290
1,33,2,1,33,3,1192
1,33,2,2,41,3,1076
1,33,2,3,3,3,555
1,33,2,4,46,3,2228
1,33,2,5,11,1,703
1,33,2,6,16,2,1108
1,33,2,7,22,3,1203
1,33,2,8,25,1,1623
1,33,3,1,21,3,1355
1,33,3,2,40,1,602
1,33,3,3,26,2,820
1,33,3,4,17,1,666
1,33,3,5,32,1,1086
1,33,3,6,1,3,1089
1,33,3,7,10,3,898
1,33,3,8,47,3,821
1,33,4,1,6,1,576
1,33,4,2,35,2,696
1,33,4,3,19,3,522
1,33,4,4,38,2,1340
1,33,4,5,48,2,512
1,33,4,6,13,3,538
1,33,4,7,30,2,1162
1,33,4,8,8,1,939
1,33,5,1,45,1,932
1,33,5,2,4,2,520
1,33,5,3,34,3,789
1,33,5,4,29,3,585
1,33,5,5,39,3,523
1,33,5,6,15,3,470
1,33,5,7,7,1,1005
1,33,5,8,20,2,630
1,33,6,1,37,3,467
1,33,6,2,14,2,381
1,33,6,3,44,3,1312
1,33,6,4,31,1,743
1,33,6,5,28,2,747
1,33,6,6,9,3,647
1,33,6,7,2,2,590
1,33,6,8,24,3,532
1,33,7,1,33,2,479
1,33,7,2,25,2,854
1,33,7,3,4,2,475
1,33,7,4,15,1,1516
1,33,7,5,43,2,611
1,33,7,6,19,1,565
1,33,7,7,10,3,712
1,33,7,8,41,1,640
1,33,8,1,20,2,796
1,33,8,2,47,3,1048
1,33,8,3,2,1,644
1,33,8,4,8,3,1236
1,33,8,5,32,1,749
1,33,8,6,17,3,834
1,33,8,7,37,3,902
1,33,8,8,30,3,688
1,33,9,1,42,3,630
1,33,9,2,1,3,475
1,33,9,3,24,1,1339
1,33,9,4,14,3,1049
1,33,9,5,45,2,1214
1,33,9,6,26,1,878
1,33,9,7,11,2,694
1,33,9,8,31,1,783
1,33,10,1,9,2,556
1,33,10,2,27,1,989
1,33,10,3,46,2,673
1,33,10,4,18,1,848
1,33,10,5,6,3,1464
1,33,10,6,38,3,672
1,33,10,7,34,2,1367
1,33,10,8,22,1,787
1,33,11,1,3,3,1130
1,33,11,2,39,3,706
1,33,11,3,13,3,425
1,33,11,4,29,3,629
1,33,11,5,35,3,643
1,33,11,6,12,3,567
1,33,11,7,44,3,541
1,33,11,8,23,2,568
1,33,12,1,28,3,615
1,33,12,2,21,2,675
1,33,12,3,16,3,662
1,33,12,4,5,3,828
1,33,12,5,36,3,788
1,33,12,6,48,2,623
1,33,12,7,7,1,909
1,33,12,8,40,2,920
1,37,1,1,26,3,3060
1,37,1,2,23,2,1453
1,37,1,3,9,2,1288
1,37,1,4,1,3,1807
1,37,1,5,17,1,2197
1,37,1,6,40,2,1522
1,37,1,7,43,2,1458
1,37,1,8,35,2,1107
1,37,2,1,18,1,1994
1,37,2,2,41,1,1110
1,37,2,3,3,3,1739
1,37,2,4,24,3,1349
1,37,2,5,30,2,1269
1,37,2,6,10,3,1172
1,37,2,7,48,2,957
1,37,2,8,32,1,943
1,37,3,1,21,2,1321
1,37,3,2,13,1,2665
1,37,3,3,12,3,1495
1,37,3,4,45,1,1413
1,37,3,5,39,1,1286
1,37,3,6,34,3,1622
1,37,3,7,29,3,1746
1,37,3,8,2,1,1975
1,37,4,1,37,1,746
1,37,4,2,14,2,1421
1,37,4,3,22,3,1968
1,37,4,4,27,2,1735
1,37,4,5,44,3,1801
1,37,4,6,7,1,1152
1,37,4,7,31,2,1235
1,37,4,8,6,1,2209
1,37,5,1,42,1,1572
1,37,5,2,36,3,831
1,37,5,3,4,2,938
1,37,5,4,16,2,807
1,37,5,5,11,1,1620
1,37,5,6,25,2,707
1,37,5,7,47,3,756
1,37,5,8,19,1,895
1,37,6,1,8,1,644
1,37,6,2,20,1,788
1,37,6,3,46,2,1288
1,37,6,4,28,1,716
1,37,6,5,38,2,764
1,37,6,6,33,2,714
1,37,6,7,15,2,1451
1,37,6,8,5,1,1132
1,37,7,1,36,3,1076
1,37,7,2,44,2,1356
1,37,7,3,11,2,1519
1,37,7,4,41,1,840
1,37,7,5,26,3,1577
1,37,7,6,18,2,1554
1,37,7,7,24,3,698
1,37,7,8,6,1,947
1,37,8,1,38,1,1142
1,37,8,2,48,2,940
1,37,8,3,33,2,738
1,37,8,4,4,2,873
1,37,8,5,23,2,745
1,37,8,6,10,2,1527
1,37,8,7,14,2,740
1,37,8,8,29,3,1733
1,37,9,1,9,2,1231
1,37,9,2,28,3,1559
1,37,9,3,2,1,1057
1,37,9,4,47,3,981
1,37,9,5,40,2,755
1,37,9,6,35,2,708
1,37,9,7,13,3,621
1,37,9,8,19,1,603
1,37,10,1,16,2,687
1,37,10,2,31,1,802
1,37,10,3,1,3,582
1,37,10,4,7,1,1093
1,37,10,5,25,2,744
1,37,10,6,39,3,626
1,37,10,7,22,3,1967
1,37,10,8,45,1,799
1,37,11,1,3,3,648
1,37,11,2,42,1,664
1,37,11,3,46,2,691
1,37,11,4,20,1,666
1,37,11,5,17,2,1992
1,37,11,6,27,2,911
1,37,11,7,8,1,744
1,37,11,8,34,3,631
1,37,12,1,12,3,565
1,37,12,2,21,2,633
1,37,12,3,37,1,568
1,37,12,4,43,2,966
1,37,12,5,32,1,658
1,37,12,6,5,2,549
1,37,12,7,30,3,748
1,37,12,8,15,2,649
1,38,1,1,9,3,3148
1,38,1,2,46,1,1046
1,38,1,3,26,1,1231
1,38,1,4,31,1,800
1,38,1,5,16,1,2008
1,38,1,6,1,3,568
1,38,1,7,22,3,1049
1,38,1,8,41,1,1632
1,38,2,1,6,1,562
1,38,2,2,35,1,601
1,38,2,3,7,1,979
1,38,2,4,14,2,844
1,38,2,5,24,3,643
1,38,2,6,40,3,1383
1,38,2,7,48,1,579
1,38,2,8,27,1,739
1,38,3,1,5,1,469
1,38,3,2,8,1,765
1,38,3,3,32,1,1200
1,38,3,4,44,2,2644
1,38,3,5,19,1,532
1,38,3,6,39,2,1518
1,38,3,7,29,1,814
1,38,3,8,13,3,931
1,38,4,1,11,1,859
1,38,4,2,18,1,906
1,38,4,3,4,3,1372
1,38,4,4,28,1,955
1,38,4,5,43,3,878
1,38,4,6,38,2,897
1,38,4,7,20,1,850
1,38,4,8,34,3,737
1,38,5,1,45,3,1275
1,38,5,2,10,2,653
1,38,5,3,33,1,838
1,38,5,4,37,3,814
1,38,5,5,25,2,526
1,38,5,6,23,2,380
1,38,5,7,15,2,398
1,38,5,8,3,3,1239
1,38,6,1,36,2,428
1,38,6,2,30,2,342
1,38,6,3,21,2,408
1,38,6,4,47,3,1334
1,38,6,5,2,2,584
1,38,6,6,12,1,667
1,38,6,7,42,2,428
1,38,6,8,17,1,556
1,38,7,1,29,3,622
1,38,7,2,6,3,816
1,38,7,3,9,3,707
1,38,7,4,14,2,492
1,38,7,5,35,1,719
1,38,7,6,38,2,477
1,38,7,7,43,2,895
1,38,7,8,22,2,715
1,38,8,1,27,1,584
1,38,8,2,46,2,467
1,38,8,3,33,1,825
1,38,8,4,18,3,503
1,38,8,5,4,2,497
1,38,8,6,21,2,517
1,38,8,7,10,2,530
1,38,8,8,37,3,541
1,38,9,1,48,1,820
1,38,9,2,7,2,699
1,38,9,3,23,2,746
1,38,9,4,34,1,504
1,38,9,5,41,1,1189
1,38,9,6,17,2,520
1,38,9,7,2,2,643
1,38,9,8,28,1,701
1,38,10,1,15,2,354
1,38,10,2,32,3,431
1,38,10,3,44,2,927
1,38,10,4,25,2,493
1,38,10,5,1,3,960
1,38,10,6,40,2,453
1,38,10,7,11,2,1038
1,38,10,8,19,1,531
1,38,11,1,45,3,507
1,38,11,2,26,3,489
1,38,11,3,39,3,527
1,38,11,4,31,2,414
1,38,11,5,20,1,436
1,38,11,6,13,1,374
1,38,11,7,8,1,367
1,38,11,8,3,3,1141
1,38,12,1,24,3,472
1,38,12,2,16,3,636
1,38,12,3,36,2,502
1,38,12,4,5,1,1007
1,38,12,5,12,1,572
1,38,12,6,30,2,494
1,38,12,7,42,2,548
1,38,12,8,47,3,534
1,39,1,1,47,3,3580
1,39,1,2,12,3,2197
1,39,1,3,3,2,2088
1,39,1,4,33,1,1530
1,39,1,5,16,2,2032
1,39,1,6,24,3,1459
1,39,1,7,41,1,1611
1,39,1,8,29,2,1847
1,39,2,1,36,3,1061
1,39,2,2,43,3,1327
1,39,2,3,1,3,1298
1,39,2,4,17,1,1462
1,39,2,5,28,1,2091
1,39,2,6,23,1,1051
1,39,2,7,7,3,999
1,39,2,8,38,2,1533
1,39,3,1,6,1,967
1,39,3,2,27,3,1555
1,39,3,3,42,1,1385
1,39,3,4,11,1,1421
1,39,3,5,20,2,976
1,39,3,6,14,2,921
1,39,3,7,48,1,1040
1,39,3,8,35,2,1294
1,39,4,1,45,3,1526
1,39,4,2,40,2,1336
1,39,4,3,26,3,1338
1,39,4,4,32,1,1282
1,39,4,5,10,2,1039
1,39,4,6,21,2,1140
1,39,4,7,2,2,919
1,39,4,8,15,3,890
1,39,5,1,9,3,842
1,39,5,2,31,2,941
1,39,5,3,13,3,788
1,39,5,4,22,2,766
1,39,5,5,4,2,770
1,39,5,6,39,3,885
1,39,5,7,46,2,1236
1,39,5,8,25,2,1039
1,39,6,1,44,3,1058
1,39,6,2,8,2,880
1,39,6,3,5,2,1096
1,39,6,4,34,3,940
1,39,6,5,37,3,1039
1,39,6,6,18,3,976
1,39,6,7,30,3,952
1,39,6,8,19,2,1034
1,39,7,1,43,1,1638
1,39,7,2,39,3,1135
1,39,7,3,13,3,1020
1,39,7,4,7,1,1550
1,39,7,5,36,3,1629
1,39,7,6,25,2,1634
1,39,7,7,24,3,1060
1,39,7,8,6,3,981
1,39,8,1,48,3,1559
1,39,8,2,19,1,1172
1,39,8,3,35,3,922
1,39,8,4,10,3,770
1,39,8,5,14,2,1367
1,39,8,6,4,3,1363
1,39,8,7,37,3,1144
1,39,8,8,30,3,1094
1,39,9,1,44,3,1041
1,39,9,2,40,2,1683
1,39,9,3,21,2,995
1,39,9,4,17,1,3071
1,39,9,5,26,3,1900
1,39,9,6,3,3,929
1,39,9,7,32,3,2541
1,39,9,8,8,1,1497
1,39,10,1,18,1,1466
1,39,10,2,28,3,2221
1,39,10,3,5,1,1138
1,39,10,4,12,3,1361
1,39,10,5,20,2,1317
1,39,10,6,33,3,1926
1,39,10,7,41,1,1926
1,39,10,8,47,1,1400
1,39,11,1,29,3,1053
1,39,11,2,22,3,944
1,39,11,3,45,3,1494
1,39,11,4,34,2,1941
1,39,11,5,38,2,1197
1,39,11,6,9,3,999
1,39,11,7,16,3,783
1,39,11,8,1,3,946
1,39,12,1,23,3,826
1,39,12,2,2,2,892
1,39,12,3,27,1,1113
1,39,12,4,15,3,765
1,39,12,5,46,1,817
1,39,12,6,31,2,762
1,39,12,7,11,1,766
1,39,12,8,42,1,1113
1,40,1,1,18,2,2428
1,40,1,2,9,3,1943
1,40,1,3,34,1,2179
1,40,1,4,5,1,1040
1,40,1,5,21,3,1423
1,40,1,6,42,2,1539
1,40,1,7,45,1,945
1,40,1,8,26,2,1874
1,40,2,1,48,2,814
1,40,2,2,37,3,1604
1,40,2,3,25,2,980
1,40,2,4,4,2,676
1,40,2,5,33,2,1736
1,40,2,6,15,3,739
1,40,2,7,24,3,1157
1,40,2,8,12,3,893
1,40,3,1,36,3,2337
1,40,3,2,38,2,1031
1,40,3,3,20,1,1802
1,40,3,4,10,3,1061
1,40,3,5,13,3,1176
1,40,3,6,3,3,888
1,40,3,7,29,3,972
1,40,3,8,46,1,865
1,40,4,1,41,2,5765
1,40,4,2,14,2,715
1,40,4,3,19,2,905
1,40,4,4,8,2,571
1,40,4,5,44,2,690
1,40,4,6,28,1,1277
1,40,4,7,2,2,1093
1,40,4,8,35,2,1456
1,40,5,1,7,1,1153
1,40,5,2,40,1,966
1,40,5,3,16,2,1613
1,40,5,4,30,2,969
1,40,5,5,23,1,641
1,40,5,6,31,2,1106
1,40,5,7,47,2,1069
1,40,5,8,1,3,698
1,40,6,1,17,1,605
1,40,6,2,27,1,586
1,40,6,3,43,2,683
1,40,6,4,22,1,970
1,40,6,5,6,1,528
1,40,6,6,32,1,703
1,40,6,7,11,3,1936
1,40,6,8,39,3,927
1,40,7,1,14,2,698
1,40,7,2,47,3,621
1,40,7,3,42,2,504
1,40,7,4,26,3,865
1,40,7,5,4,1,609
1,40,7,6,23,2,468
1,40,7,7,12,3,804
1,40,7,8,35,3,752
1,40,8,1,11,1,3216
1,40,8,2,39,1,721
1,40,8,3,31,1,3313
1,40,8,4,27,3,2133
1,40,8,5,17,1,794
1,40,8,6,2,2,590
1,40,8,7,44,3,555
1,40,8,8,22,3,4593
1,40,9,1,43,2,586
1,40,9,2,7,3,503
1,40,9,3,15,1,639
1,40,9,4,29,2,1213
1,40,9,5,34,2,791
1,40,9,6,40,2,555
1,40,9,7,24,1,3171
1,40,9,8,5,1,696
1,40,10,1,10,1,1968
1,40,10,2,38,2,1348
1,40,10,3,36,3,613
1,40,10,4,48,1,727
1,40,10,5,16,2,1551
1,40,10,6,3,3,732
1,40,10,7,25,2,994
1,40,10,8,20,2,608
1,40,11,1,30,3,1400
1,40,11,2,21,2,575
1,40,11,3,9,1,940
1,40,11,4,1,2,772
1,40,11,5,45,3,712
1,40,11,6,32,3,1447
1,40,11,7,41,1,919
1,40,11,8,18,1,1020
1,40,12,1,19,3,924
1,40,12,2,6,1,474
1,40,12,3,37,2,817
1,40,12,4,28,1,748
1,40,12,5,33,1,543
1,40,12,6,46,1,436
1,40,12,7,8,2,572
1,40,12,8,13,3,1546
1,41,1,1,18,1,1893
1,41,1,2,8,2,2076
1,41,1,3,45,1,1530
1,41,1,4,32,2,1225
1,41,1,5,1,3,475
1,41,1,6,28,2,473
1,41,1,7,19,3,648
1,41,1,8,38,2,888
1,41,2,1,34,2,571
1,41,2,2,42,2,802
1,41,2,3,6,1,565
1,41,2,4,23,3,541
1,41,2,5,29,3,649
1,41,2,6,11,3,832
1,41,2,7,17,1,637
1,41,2,8,43,3,934
1,41,3,1,37,2,363
1,41,3,2,3,3,774
1,41,3,3,25,2,509
1,41,3,4,10,2,438
1,41,3,5,13,3,345
1,41,3,6,24,1,974
1,41,3,7,36,2,709
1,41,3,8,46,2,531
1,41,4,1,39,3,851
1,41,4,2,5,1,506
1,41,4,3,22,2,608
1,41,4,4,31,3,570
1,41,4,5,44,2,373
1,41,4,6,16,3,497
1,41,4,7,30,2,798
1,41,4,8,9,3,552
1,41,5,1,27,3,508
1,41,5,2,14,2,486
1,41,5,3,40,1,549
1,41,5,4,33,3,504
1,41,5,5,21,3,613
1,41,5,6,7,2,903
1,41,5,7,47,3,186
1,41,5,8,4,2,457
1,41,6,1,35,3,585
1,41,6,2,20,2,460
1,41,6,3,15,3,342
1,41,6,4,2,2,491
1,41,6,5,26,3,685
1,41,6,6,48,1,901
1,41,6,7,41,1,878
1,41,6,8,12,3,646
1,41,7,1,31,2,783
1,41,7,2,37,3,814
1,41,7,3,43,2,1170
1,41,7,4,17,1,1095
1,41,7,5,29,3,509
1,41,7,6,4,2,781
1,41,7,7,19,3,469
1,41,7,8,9,2,638
1,41,8,1,27,1,856
1,41,8,2,8,2,576
1,41,8,3,35,3,592
1,41,8,4,38,2,443
1,41,8,5,2,2,600
1,41,8,6,20,2,486
1,41,8,7,15,3,483
1,41,8,8,45,1,757
1,41,9,1,7,2,609
1,41,9,2,33,1,805
1,41,9,3,40,2,746
1,41,9,4,16,2,967
1,41,9,5,21,2,1036
1,41,9,6,28,1,1205
1,41,9,7,46,1,719
1,41,9,8,1,3,451
1,41,10,1,10,2,522
1,41,10,2,25,2,568
1,41,10,3,34,1,527
1,41,10,4,39,3,373
1,41,10,5,24,3,373
1,41,10,6,6,1,477
1,41,10,7,13,3,319
1,41,10,8,47,3,792
1,41,11,1,3,3,440
1,41,11,2,48,3,1448
1,41,11,3,41,1,781
1,41,11,4,18,3,897
1,41,11,5,22,2,2272
1,41,11,6,32,3,425
1,41,11,7,26,3,333
1,41,11,8,12,1,484
1,41,12,1,14,2,877
1,41,12,2,44,3,477
1,41,12,3,30,2,487
1,41,12,4,5,1,491
1,41,12,5,23,1,501
1,41,12,6,36,3,529
1,41,12,7,11,3,494
1,41,12,8,42,1,393
1,42,1,1,4,3,1537
1,42,1,2,47,3,1599
1,42,1,3,16,2,1964
1,42,1,4,12,1,1013
1,42,1,5,28,1,909
1,42,1,6,36,2,788
1,42,1,7,39,3,1177
1,42,1,8,24,3,898
1,42,2,1,27,3,1249
1,42,2,2,20,2,608
1,42,2,3,31,3,659
1,42,2,4,9,2,1025
1,42,2,5,15,2,677
1,42,2,6,3,3,879
1,42,2,7,45,3,1207
1,42,2,8,38,2,478
1,42,3,1,22,2,612
1,42,3,2,32,2,770
1,42,3,3,18,3,1523
1,42,3,4,37,3,772
1,42,3,5,44,2,549
1,42,3,6,1,3,988
1,42,3,7,10,2,1412
1,42,3,8,30,2,835
1,42,4,1,7,3,3140
1,42,4,2,42,2,785
1,42,4,3,34,1,1007
1,42,4,4,5,1,1116
1,42,4,5,46,2,3654
1,42,4,6,26,3,714
1,42,4,7,21,2,2725
1,42,4,8,17,1,2487
1,42,5,1,25,2,1212
1,42,5,2,41,1,1212
1,42,5,3,48,2,1009
1,42,5,4,23,2,894
1,42,5,5,33,3,2596
1,42,5,6,6,1,1636
1,42,5,7,8,2,1988
1,42,5,8,13,3,961
1,42,6,1,40,2,1424
1,42,6,2,43,3,858
1,42,6,3,19,2,1502
1,42,6,4,35,2,1137
1,42,6,5,2,2,1131
1,42,6,6,29,3,1270
1,42,6,7,11,3,1626
1,42,6,8,14,2,917
1,42,7,1,47,1,635
1,42,7,2,26,3,1217
1,42,7,3,13,3,1033
1,42,7,4,23,2,799
1,42,7,5,33,1,1095
1,42,7,6,1,3,875
1,42,7,7,9,2,1390
1,42,7,8,41,1,1880
1,42,8,1,5,1,1096
1,42,8,2,43,2,1260
1,42,8,3,28,1,816
1,42,8,4,35,2,832
1,42,8,5,16,2,1024
1,42,8,6,20,2,776
1,42,8,7,42,3,1024
1,42,8,8,12,3,1090
1,42,9,1,29,3,1100
1,42,9,2,45,1,777
1,42,9,3,21,2,1265
1,42,9,4,2,2,1026
1,42,9,5,39,3,1945
1,42,9,6,34,2,1171
1,42,9,7,11,1,1939
1,42,9,8,14,2,748
1,42,10,1,36,2,590
1,42,10,2,25,2,591
1,42,10,3,19,3,1060
1,42,10,4,37,3,1017
1,42,10,5,8,2,748
1,42,10,6,4,2,615
1,42,10,7,17,2,862
1,42,10,8,44,2,2470
1,42,11,1,27,1,907
1,42,11,2,6,1,1196
1,42,11,3,38,2,668
1,42,11,4,15,2,3043
1,42,11,5,46,3,3668
1,42,11,6,32,2,1426
1,42,11,7,24,3,1051
1,42,11,8,10,2,1468
1,42,12,1,48,2,1399
1,42,12,2,3,3,1616
1,42,12,3,7,1,1402
1,42,12,4,30,2,2563
1,42,12,5,18,3,2117
1,42,12,6,40,3,1007
1,42,12,7,31,2,1274
1,42,12,8,22,3,2392
1,43,1,1,45,1,2092
1,43,1,2,32,1,1434
1,43,1,3,1,3,1451
1,43,1,4,30,1,664
1,43,1,5,10,2,599
1,43,1,6,39,1,3093
1,43,1,7,23,3,922
1,43,1,8,18,1,885
1,43,2,1,37,1,1654
1,43,2,2,7,1,1034
1,43,2,3,16,2,1662
1,43,2,4,22,3,955
1,43,2,5,28,1,2293
1,43,2,6,31,3,810
1,43,2,7,6,1,815
1,43,2,8,47,3,729
1,43,3,1,8,1,1252
1,43,3,2,36,3,862
1,43,3,3,27,1,711
1,43,3,4,40,1,1563
1,43,3,5,14,3,693
1,43,3,6,43,1,931
1,43,3,7,19,3,839
1,43,3,8,5,1,1320
1,43,4,1,13,3,586
1,43,4,2,44,2,1912
1,43,4,3,25,2,952
1,43,4,4,38,2,824
1,43,4,5,24,1,768
1,43,4,6,34,2,848
1,43,4,7,9,3,638
1,43,4,8,3,3,808
1,43,5,1,41,1,1008
1,43,5,2,35,2,726
1,43,5,3,46,3,1000
1,43,5,4,2,2,1007
1,43,5,5,26,2,838
1,43,5,6,11,2,909
1,43,5,7,17,1,651
1,43,5,8,21,3,610
1,43,6,1,12,3,748
1,43,6,2,48,2,667
1,43,6,3,15,3,655
1,43,6,4,33,2,637
1,43,6,5,4,2,508
1,43,6,6,42,3,720
1,43,6,7,20,2,668
1,43,6,8,29,3,921
1,43,7,1,36,3,682
1,43,7,2,37,3,630
1,43,7,3,10,3,1148
1,43,7,4,6,1,693
1,43,7,5,14,2,711
1,43,7,6,21,3,572
1,43,7,7,28,2,690
1,43,7,8,46,3,749
1,43,8,1,2,2,595
1,43,8,2,40,2,509
1,43,8,3,24,2,551
1,43,8,4,29,2,826
1,43,8,5,12,3,1500
1,43,8,6,16,2,654
1,43,8,7,43,3,1091
1,43,8,8,34,2,1032
1,43,9,1,38,2,699
1,43,9,2,27,3,2159
1,43,9,3,9,2,600
1,43,9,4,45,3,699
1,43,9,5,35,2,609
1,43,9,6,18,1,994
1,43,9,7,20,2,556
1,43,9,8,1,3,692
1,43,10,1,32,1,1130
1,43,10,2,44,2,654
1,43,10,3,15,3,778
1,43,10,4,11,2,618
1,43,10,5,42,1,579
1,43,10,6,3,3,597
1,43,10,7,23,2,642
1,43,10,8,30,2,687
1,43,11,1,4,2,588
1,43,11,2,17,1,757
1,43,11,3,39,2,482
1,43,11,4,33,2,782
1,43,11,5,26,2,504
1,43,11,6,19,2,510
1,43,11,7,7,2,546
1,43,11,8,48,2,431
1,43,12,1,8,2,535
1,43,12,2,13,3,643
1,43,12,3,41,1,1106
1,43,12,4,25,2,631
1,43,12,5,5,1,642
1,43,12,6,47,2,588
1,43,12,7,22,1,761
1,43,12,8,31,2,1009
1,44001,1,1,3,3,918
1,44001,1,2,22,2,1839
1,44001,1,3,29,3,1167
1,44001,1,4,44,3,1159
1,44001,1,5,14,2,813
1,44001,1,6,11,2,832
1,44001,1,7,40,2,774
1,44001,1,8,32,1,676
1,44001,2,1,30,2,1166
1,44001,2,2,15,3,715
1,44001,2,3,31,1,732
1,44001,2,4,5,1,650
1,44001,2,5,12,1,900
1,44001,2,6,38,2,591
1,44001,2,7,48,2,495
1,44001,2,8,19,3,719
1,44001,3,1,4,2,443
1,44001,3,2,23,2,587
1,44001,3,3,26,1,687
1,44001,3,4,33,2,459
1,44001,3,5,10,3,417
1,44001,3,6,43,2,977
1,44001,3,7,17,3,1157
1,44001,3,8,37,3,1200
1,44001,4,1,36,3,584
1,44001,4,2,45,1,637
1,44001,4,3,39,1,566
1,44001,4,4,18,3,605
1,44001,4,5,20,3,1059
1,44001,4,6,27,2,616
1,44001,4,7,1,3,1051
1,44001,4,8,7,3,1193
1,44001,5,1,25,2,812
1,44001,5,2,47,3,480
1,44001,5,3,13,3,635
1,44001,5,4,35,2,649
1,44001,5,5,2,2,794
1,44001,5,6,41,3,694
1,44001,5,7,8,1,618
1,44001,5,8,24,3,1269
1,44001,6,1,42,2,481
1,44001,6,2,6,3,577
1,44001,6,3,21,1,1322
1,44001,6,4,46,1,581
1,44001,6,5,28,3,669
1,44001,6,6,16,3,1178
1,44001,6,7,34,3,637
1,44001,6,8,9,2,1132
1,44001,7,1,39,3,841
1,44001,7,2,1,3,467
1,44001,7,3,35,2,798
1,44001,7,4,14,2,561
1,44001,7,5,19,3,753
1,44001,7,6,12,1,953
1,44001,7,7,30,3,883
1,44001,7,8,44,2,1013
1,44001,8,1,4,2,648
1,44001,8,2,38,2,640
1,44001,8,3,7,3,554
1,44001,8,4,26,3,530
1,44001,8,5,43,2,979
1,44001,8,6,18,1,996
1,44001,8,7,24,3,924
1,44001,8,8,36,3,1226
1,44001,9,1,21,2,1124
1,44001,9,2,5,1,849
1,44001,9,3,45,3,629
1,44001,9,4,40,2,720
1,44001,9,5,31,1,1409
1,44001,9,6,25,1,917
1,44001,9,7,15,3,2106
1,44001,9,8,11,1,717
1,44001,10,1,22,2,552
1,44001,10,2,37,3,528
1,44001,10,3,27,3,989
1,44001,10,4,2,1,1088
1,44001,10,5,10,2,1029
1,44001,10,6,16,2,952
1,44001,10,7,34,3,661
1,44001,10,8,47,1,681
1,44001,11,1,9,3,816
1,44001,11,2,46,2,757
1,44001,11,3,32,2,654
1,44001,11,4,28,3,767
1,44001,11,5,41,1,1069
1,44001,11,6,6,1,793
1,44001,11,7,17,1,1223
1,44001,11,8,23,2,599
1,44001,12,1,48,2,543
1,44001,12,2,8,1,839
1,44001,12,3,29,1,885
1,44001,12,4,33,2,1217
1,44001,12,5,20,2,688
1,44001,12,6,3,3,572
1,44001,12,7,42,2,573
1,44001,12,8,13,3,1661
1,44002,1,1,17,1,1383
1,44002,1,2,31,3,2175
1,44002,1,3,48,2,966
1,44002,1,4,38,1,1760
1,44002,1,5,6,2,820
1,44002,1,6,8,2,772
1,44002,1,7,23,1,1889
1,44002,1,8,25,3,1119
1,44002,2,1,12,1,868
1,44002,2,2,2,2,539
1,44002,2,3,37,3,738
1,44002,2,4,30,3,1380
1,44002,2,5,22,1,1075
1,44002,2,6,45,3,1058
1,44002,2,7,36,1,1421
1,44002,2,8,15,3,705
1,44002,3,1,19,3,620
1,44002,3,2,3,3,683
1,44002,3,3,16,2,526
1,44002,3,4,32,2,1050
1,44002,3,5,43,2,1376
1,44002,3,6,40,3,960
1,44002,3,7,27,1,914
1,44002,3,8,9,3,702
1,44002,4,1,5,1,625
1,44002,4,2,20,2,708
1,44002,4,3,7,3,710
1,44002,4,4,47,3,1290
1,44002,4,5,29,1,1182
1,44002,4,6,35,2,1232
1,44002,4,7,42,1,7103
1,44002,4,8,13,3,1114
1,44002,5,1,1,3,448
1,44002,5,2,26,2,915
1,44002,5,3,46,2,703
1,44002,5,4,24,1,753
1,44002,5,5,41,1,634
1,44002,5,6,33,3,769
1,44002,5,7,18,1,568
1,44002,5,8,10,3,1076
1,44002,6,1,4,2,574
1,44002,6,2,44,2,557
1,44002,6,3,39,1,518
1,44002,6,4,21,1,607
1,44002,6,5,14,2,856
1,44002,6,6,11,2,1245
1,44002,6,7,34,3,1205
1,44002,6,8,28,3,911
1,44002,7,1,20,2,492
1,44002,7,2,33,2,1085
1,44002,7,3,43,3,609
1,44002,7,4,17,1,521
1,44002,7,5,9,3,656
1,44002,7,6,29,3,771
1,44002,7,7,37,3,650
1,44002,7,8,3,3,956
1,44002,8,1,46,2,648
1,44002,8,2,30,2,1260
1,44002,8,3,16,2,906
1,44002,8,4,36,2,717
1,44002,8,5,11,3,1053
1,44002,8,6,6,3,760
1,44002,8,7,19,3,1258
1,44002,8,8,41,3,1079
1,44002,9,1,47,1,692
1,44002,9,2,38,1,837
1,44002,9,3,4,2,626
1,44002,9,4,35,2,868
1,44002,9,5,13,3,624
1,44002,9,6,23,3,986
1,44002,9,7,12,1,1879
1,44002,9,8,28,3,1318
1,44002,10,1,2,2,678
1,44002,10,2,7,2,1510
1,44002,10,3,31,3,1617
1,44002,10,4,27,1,1792
1,44002,10,5,24,1,661
1,44002,10,6,42,1,1934
1,44002,10,7,14,2,633
1,44002,10,8,44,2,551
1,44002,11,1,8,1,1963
1,44002,11,2,26,3,1254
1,44002,11,3,18,1,675
1,44002,11,4,32,3,775
1,44002,11,5,45,1,914
1,44002,11,6,39,1,1417
1,44002,11,7,1,3,659
1,44002,11,8,22,2,650
1,44002,12,1,40,2,1349
1,44002,12,2,48,2,1206
1,44002,12,3,5,1,668
1,44002,12,4,21,3,1105
1,44002,12,5,15,3,702
1,44002,12,6,25,2,1052
1,44002,12,7,34,2,577
1,44002,12,8,10,3,1053
1,44004,1,1,37,3,1191
1,44004,1,2,48,2,644
1,44004,1,3,23,2,829
1,44004,1,4,36,3,1638
1,44004,1,5,6,1,1354
1,44004,1,6,12,1,2147
1,44004,1,7,29,3,1860
1,44004,1,8,14,2,1071
1,44004,2,1,33,3,1402
1,44004,2,2,21,3,850
1,44004,2,3,38,2,1136
1,44004,2,4,13,3,701
1,44004,2,5,2,2,660
1,44004,2,6,26,3,1949
1,44004,2,7,7,3,643
1,44004,2,8,45,1,950
1,44004,3,1,8,2,693
1,44004,3,2,40,2,1119
1,44004,3,3,5,1,544
1,44004,3,4,17,1,782
1,44004,3,5,19,3,1253
1,44004,3,6,46,1,654
1,44004,3,7,32,2,1358
1,44004,3,8,27,3,831
1,44004,4,1,39,1,951
1,44004,4,2,35,3,1128
1,44004,4,3,20,2,909
1,44004,4,4,3,3,615
1,44004,4,5,43,2,1400
1,44004,4,6,15,3,685
1,44004,4,7,28,1,951
1,44004,4,8,10,2,613
1,44004,5,1,16,2,646
1,44004,5,2,9,3,606
1,44004,5,3,34,2,609
1,44004,5,4,47,3,692
1,44004,5,5,41,3,2416
1,44004,5,6,1,3,515
1,44004,5,7,24,1,1082
1,44004,5,8,30,2,793
1,44004,6,1,42,2,438
1,44004,6,2,22,2,676
1,44004,6,3,4,2,540
1,44004,6,4,18,1,668
1,44004,6,5,31,2,651
1,44004,6,6,25,2,641
1,44004,6,7,11,1,1301
1,44004,6,8,44,2,1028
1,44004,7,1,29,3,772
1,44004,7,2,15,3,611
1,44004,7,3,39,1,1046
1,44004,7,4,23,3,1091
1,44004,7,5,2,2,577
1,44004,7,6,32,3,981
1,44004,7,7,8,2,970
1,44004,7,8,46,1,701
1,44004,8,1,20,2,865
1,44004,8,2,47,3,1430
1,44004,8,3,9,3,1261
1,44004,8,4,31,2,704
1,44004,8,5,38,2,1659
1,44004,8,6,26,3,891
1,44004,8,7,14,2,653
1,44004,8,8,6,1,611
1,44004,9,1,25,2,541
1,44004,9,2,7,3,670
1,44004,9,3,5,1,677
1,44004,9,4,33,1,1003
1,44004,9,5,22,2,600
1,44004,9,6,16,2,570
1,44004,9,7,37,2,439
1,44004,9,8,44,2,1443
1,44004,10,1,42,2,1069
1,44004,10,2,4,2,523
1,44004,10,3,12,1,797
1,44004,10,4,13,3,579
1,44004,10,5,43,3,1703
1,44004,10,6,28,1,644
1,44004,10,7,35,3,695
1,44004,10,8,19,2,1004
1,44004,11,1,10,2,541
1,44004,11,2,48,1,601
1,44004,11,3,27,1,549
1,44004,11,4,34,1,642
1,44004,11,5,24,3,492
1,44004,11,6,18,1,886
1,44004,11,7,1,3,613
1,44004,11,8,41,3,1027
1,44004,12,1,21,3,1047
1,44004,12,2,45,1,711
1,44004,12,3,11,1,783
1,44004,12,4,36,2,804
1,44004,12,5,30,2,385
1,44004,12,6,3,3,1072
1,44004,12,7,40,2,1140
1,44004,12,8,17,1,530
1,44005,1,1,27,2,1354
1,44005,1,2,12,3,1456
1,44005,1,3,39,3,1005
1,44005,1,4,44,3,659
1,44005,1,5,2,2,883
1,44005,1,6,36,2,839
1,44005,1,7,16,2,4108
1,44005,1,8,19,3,760
1,44005,2,1,47,2,801
1,44005,2,2,29,3,718
1,44005,2,3,14,2,845
1,44005,2,4,3,3,810
1,44005,2,5,33,2,788
1,44005,2,6,21,3,710
1,44005,2,7,37,2,557
1,44005,2,8,10,2,563
1,44005,3,1,40,2,598
1,44005,3,2,30,2,699
1,44005,3,3,20,2,575
1,44005,3,4,32,2,682
1,44005,3,5,46,1,1027
1,44005,3,6,7,3,646
1,44005,3,7,17,1,1135
1,44005,3,8,1,3,654
1,44005,4,1,38,3,1025
1,44005,4,2,28,1,1674
1,44005,4,3,11,1,667
1,44005,4,4,35,2,956
1,44005,4,5,24,3,1269
1,44005,4,6,18,1,803
1,44005,4,7,48,2,718
1,44005,4,8,6,1,672
1,44005,5,1,41,3,819
1,44005,5,2,8,2,537
1,44005,5,3,31,1,1454
1,44005,5,4,23,2,963
1,44005,5,5,15,3,961
1,44005,5,6,43,2,753
1,44005,5,7,5,1,686
1,44005,5,8,25,1,1475
1,44005,6,1,13,3,580
1,44005,6,2,45,1,608
1,44005,6,3,42,2,692
1,44005,6,4,4,2,855
1,44005,6,5,9,2,1033
1,44005,6,6,26,2,694
1,44005,6,7,22,2,687
1,44005,6,8,34,3,889
1,44005,7,1,44,3,739
1,44005,7,2,39,1,1285
1,44005,7,3,25,2,602
1,44005,7,4,8,2,481
1,44005,7,5,31,2,565
1,44005,7,6,3,3,877
1,44005,7,7,20,2,530
1,44005,7,8,18,1,589
1,44005,8,1,34,1,580
1,44005,8,2,16,2,555
1,44005,8,3,7,1,852
1,44005,8,4,23,2,947
1,44005,8,5,40,2,950
1,44005,8,6,29,3,831
1,44005,8,7,6,1,531
1,44005,8,8,43,2,531
1,44005,9,1,19,1,781
1,44005,9,2,15,3,1741
1,44005,9,3,46,1,807
1,44005,9,4,4,2,596
1,44005,9,5,32,1,739
1,44005,9,6,9,2,824
1,44005,9,7,27,1,1167
1,44005,9,8,41,1,1378
1,44005,10,1,13,3,601
1,44005,10,2,11,1,811
1,44005,10,3,48,3,1454
1,44005,10,4,42,2,1398
1,44005,10,5,28,1,542
1,44005,10,6,5,1,451
1,44005,10,7,33,2,628
1,44005,10,8,22,2,462
1,44005,11,1,36,3,612
1,44005,11,2,12,1,800
1,44005,11,3,1,3,541
1,44005,11,4,30,2,592
1,44005,11,5,45,1,397
1,44005,11,6,37,2,464
1,44005,11,7,24,3,664
1,44005,11,8,17,2,562
1,44005,12,1,35,2,636
1,44005,12,2,14,2,422
1,44005,12,3,10,2,393
1,44005,12,4,2,1,701
1,44005,12,5,21,3,1355
1,44005,12,6,38,2,478
1,44005,12,7,26,3,660
1,44005,12,8,47,1,1037
1,44006,1,1,13,3,951
1,44006,1,2,29,3,637
1,44006,1,3,39,3,435
1,44006,1,4,3,3,1003
1,44006,1,5,8,2,561
1,44006,1,6,48,3,861
1,44006,1,7,35,3,738
1,44006,1,8,20,2,534
1,44006,2,1,44,2,676
1,44006,2,2,11,3,516
1,44006,2,3,40,3,723
1,44006,2,4,19,3,599
1,44006,2,5,6,1,474
1,44006,2,6,30,3,686
1,44006,2,7,36,2,700
1,44006,2,8,14,2,757
1,44006,3,1,24,2,548
1,44006,3,2,33,2,841
1,44006,3,3,10,2,560
1,44006,3,4,17,2,593
1,44006,3,5,1,3,584
1,44006,3,6,43,2,506
1,44006,3,7,28,2,758
1,44006,3,8,42,1,1539
1,44006,4,1,32,3,612
1,44006,4,2,46,1,696
1,44006,4,3,2,2,610
1,44006,4,4,41,3,549
1,44006,4,5,22,2,457
1,44006,4,6,25,2,519
1,44006,4,7,15,3,565
1,44006,4,8,9,2,654
1,44006,5,1,26,3,554
1,44006,5,2,31,2,470
1,44006,5,3,18,2,905
1,44006,5,4,5,2,605
1,44006,5,5,7,1,684
1,44006,5,6,23,1,704
1,44006,5,7,37,3,582
1,44006,5,8,45,2,533
1,44006,6,1,21,3,568
1,44006,6,2,34,2,504
1,44006,6,3,27,1,604
1,44006,6,4,47,3,567
1,44006,6,5,38,2,463
1,44006,6,6,12,3,653
1,44006,6,7,4,3,570
1,44006,6,8,16,2,396
1,44006,7,1,2,2,421
1,44006,7,2,41,3,485
1,44006,7,3,15,2,644
1,44006,7,4,10,3,805
1,44006,7,5,48,1,542
1,44006,7,6,35,3,509
1,44006,7,7,20,2,527
1,44006,7,8,28,1,533
1,44006,8,1,38,3,637
1,44006,8,2,29,3,631
1,44006,8,3,46,2,502
1,44006,8,4,34,3,654
1,44006,8,5,6,1,615
1,44006,8,6,12,3,711
1,44006,8,7,21,3,675
1,44006,8,8,16,2,573
1,44006,9,1,8,1,500
1,44006,9,2,4,3,640
1,44006,9,3,36,3,590
1,44006,9,4,40,2,712
1,44006,9,5,18,1,566
1,44006,9,6,44,3,543
1,44006,9,7,27,1,641
1,44006,9,8,22,3,678
1,44006,10,1,37,3,398
1,44006,10,2,43,1,402
1,44006,10,3,31,1,734
1,44006,10,4,19,3,695
1,44006,10,5,14,2,397
1,44006,10,6,3,3,434
1,44006,10,7,9,2,577
1,44006,10,8,26,1,542
1,44006,11,1,33,2,628
1,44006,11,2,47,3,437
1,44006,11,3,11,2,495
1,44006,11,4,25,2,545
1,44006,11,5,1,2,1007
1,44006,11,6,39,3,751
1,44006,11,7,17,1,595
1,44006,11,8,23,1,599
1,44006,12,1,45,1,1959
1,44006,12,2,32,1,618
1,44006,12,3,5,1,1036
1,44006,12,4,13,3,470
1,44006,12,5,24,1,687
1,44006,12,6,30,2,1288
1,44006,12,7,7,1,731
1,44006,12,8,42,3,628
1,44007,1,1,35,2,1183
1,44007,1,2,38,3,1588
1,44007,1,3,25,2,474
1,44007,1,4,18,1,567
1,44007,1,5,19,3,1499
1,44007,1,6,48,2,519
1,44007,1,7,1,1,2371
1,44007,1,8,8,3,1294
1,44007,2,1,28,3,1758
1,44007,2,2,15,3,700
1,44007,2,3,21,2,786
1,44007,2,4,31,3,1203
1,44007,2,5,10,2,848
1,44007,2,6,2,2,782
1,44007,2,7,44,3,533
1,44007,2,8,37,3,739
1,44007,3,1,14,2,497
1,44007,3,2,47,3,2131
1,44007,3,3,34,3,663
1,44007,3,4,24,3,1119
1,44007,3,5,7,1,556
1,44007,3,6,30,2,551
1,44007,3,7,4,3,591
1,44007,3,8,41,1,1574
1,44007,4,1,33,2,1064
1,44007,4,2,26,3,675
1,44007,4,3,45,1,681
1,44007,4,4,9,2,816
1,44007,4,5,16,3,889
1,44007,4,6,5,2,526
1,44007,4,7,40,3,999
1,44007,4,8,20,1,900
1,44007,5,1,6,3,566
1,44007,5,2,13,1,657
1,44007,5,3,32,3,784
1,44007,5,4,46,1,710
1,44007,5,5,27,2,891
1,44007,5,6,42,3,616
1,44007,5,7,11,2,1125
1,44007,5,8,23,2,671
1,44007,6,1,29,3,458
1,44007,6,2,3,2,519
1,44007,6,3,22,3,438
1,44007,6,4,43,1,572
1,44007,6,5,36,3,408
1,44007,6,6,12,3,397
1,44007,6,7,17,2,705
1,44007,6,8,39,2,745
1,44007,7,1,30,3,372
1,44007,7,2,6,3,301
1,44007,7,3,16,3,464
1,44007,7,4,47,3,941
1,44007,7,5,21,2,552
1,44007,7,6,38,1,794
1,44007,7,7,8,1,797
1,44007,7,8,31,2,751
1,44007,8,1,1,1,577
1,44007,8,2,18,3,709
1,44007,8,3,20,1,562
1,44007,8,4,11,2,403
1,44007,8,5,32,1,405
1,44007,8,6,41,1,1014
1,44007,8,7,46,2,760
1,44007,8,8,29,3,545
1,44007,9,1,36,3,349
1,44007,9,2,3,2,1270
1,44007,9,3,45,3,737
1,44007,9,4,39,3,381
1,44007,9,5,27,1,537
1,44007,9,6,19,3,376
1,44007,9,7,13,3,444
1,44007,9,8,12,3,1052
1,44007,10,1,15,1,577
1,44007,10,2,48,3,464
1,44007,10,3,2,2,926
1,44007,10,4,34,1,665
1,44007,10,5,9,2,578
1,44007,10,6,37,3,467
1,44007,10,7,22,3,730
1,44007,10,8,28,3,672
1,44007,11,1,40,3,595
1,44007,11,2,24,3,285
1,44007,11,3,44,1,653
1,44007,11,4,4,3,338
1,44007,11,5,35,2,1120
1,44007,11,6,25,2,535
1,44007,11,7,7,1,632
1,44007,11,8,17,3,869
1,44007,12,1,23,2,390
1,44007,12,2,26,3,483
1,44007,12,3,33,1,614
1,44007,12,4,14,2,1053
1,44007,12,5,5,2,1180
1,44007,12,6,42,3,1246
1,44007,12,7,43,1,688
1,44007,12,8,10,3,1330
1,44014,1,1,14,2,1617
1,44014,1,2,29,1,1361
1,44014,1,3,46,1,553
1,44014,1,4,6,1,807
1,44014,1,5,32,1,708
1,44014,1,6,38,2,1135
1,44014,1,7,7,1,628
1,44014,1,8,23,2,704
1,44014,2,1,10,3,681
1,44014,2,2,16,2,620
1,44014,2,3,33,2,711
1,44014,2,4,5,1,678
1,44014,2,5,43,2,594
1,44014,2,6,22,1,682
1,44014,2,7,26,1,1454
1,44014,2,8,41,3,588
1,44014,3,1,2,2,997
1,44014,3,2,17,1,1110
1,44014,3,3,48,2,588
1,44014,3,4,24,2,1275
1,44014,3,5,25,2,1649
1,44014,3,6,8,3,1162
1,44014,3,7,37,2,781
1,44014,3,8,34,3,861
1,44014,4,1,42,2,800
1,44014,4,2,9,2,1565
1,44014,4,3,47,3,601
1,44014,4,4,35,2,692
1,44014,4,5,1,3,563
1,44014,4,6,28,2,966
1,44014,4,7,13,3,827
1,44014,4,8,19,3,605
1,44014,5,1,27,3,579
1,44014,5,2,12,3,1134
1,44014,5,3,20,2,739
1,44014,5,4,15,3,550
1,44014,5,5,3,3,674
1,44014,5,6,45,1,578
1,44014,5,7,31,1,742
1,44014,5,8,39,3,611
1,44014,6,1,30,1,729
1,44014,6,2,4,2,566
1,44014,6,3,18,1,499
1,44014,6,4,21,3,490
1,44014,6,5,36,3,970
1,44014,6,6,11,1,759
1,44014,6,7,44,3,598
1,44014,6,8,40,1,641
1,44014,7,1,33,2,962
1,44014,7,2,19,3,603
1,44014,7,3,5,1,674
1,44014,7,4,37,3,599
1,44014,7,5,9,3,1000
1,44014,7,6,47,1,1443
1,44014,7,7,27,2,773
1,44014,7,8,16,2,681
1,44014,8,1,32,1,861
1,44014,8,2,46,2,1774
1,44014,8,3,17,1,627
1,44014,8,4,7,1,1276
1,44014,8,5,41,1,733
1,44014,8,6,30,2,1608
1,44014,8,7,6,1,844
1,44014,8,8,22,2,732
1,44014,9,1,42,1,1143
1,44014,9,2,23,1,757
1,44014,9,3,1,3,799
1,44014,9,4,43,3,1001
1,44014,9,5,25,1,1101
1,44014,9,6,36,3,916
1,44014,9,7,10,3,1107
1,44014,9,8,15,3,708
1,44014,10,1,12,3,669
1,44014,10,2,45,3,646
1,44014,10,3,18,1,797
1,44014,10,4,2,2,975
1,44014,10,5,29,3,1475
1,44014,10,6,24,1,875
1,44014,10,7,31,1,820
1,44014,10,8,40,2,734
1,44014,11,1,4,2,974
1,44014,11,2,38,2,619
1,44014,11,3,11,2,1382
1,44014,11,4,44,2,578
1,44014,11,5,34,3,719
1,44014,11,6,28,3,1078
1,44014,11,7,13,3,654
1,44014,11,8,20,2,647
1,44014,12,1,8,1,1120
1,44014,12,2,3,2,1534
1,44014,12,3,35,2,950
1,44014,12,4,21,3,652
1,44014,12,5,14,2,582
1,44014,12,6,48,1,658
1,44014,12,7,39,3,674
1,44014,12,8,26,1,906
1,44015,1,1,25,3,3212
1,44015,1,2,5,1,698
1,44015,1,3,45,1,1225
1,44015,1,4,32,2,1845
1,44015,1,5,20,2,1867
1,44015,1,6,12,1,1308
1,44015,1,7,41,1,1093
1,44015,1,8,13,3,1035
1,44015,2,1,10,1,633
1,44015,2,2,48,1,682
1,44015,2,3,19,2,1661
1,44015,2,4,34,3,1861
1,44015,2,5,38,3,1203
1,44015,2,6,30,1,869
1,44015,2,7,4,2,958
1,44015,2,8,18,1,1291
1,44015,3,1,7,3,856
1,44015,3,2,28,2,1070
1,44015,3,3,46,2,640
1,44015,3,4,14,1,600
1,44015,3,5,3,3,678
1,44015,3,6,35,2,855
1,44015,3,7,42,2,544
1,44015,3,8,21,2,2692
1,44015,4,1,16,2,1302
1,44015,4,2,44,3,954
1,44015,4,3,31,1,682
1,44015,4,4,8,3,1479
1,44015,4,5,1,3,1649
1,44015,4,6,29,1,1229
1,44015,4,7,37,2,1432
1,44015,4,8,22,1,1121
1,44015,5,1,9,2,1600
1,44015,5,2,23,3,1950
1,44015,5,3,47,3,1057
1,44015,5,4,17,1,1391
1,44015,5,5,6,1,741
1,44015,5,6,27,3,1077
1,44015,5,7,40,1,1210
1,44015,5,8,33,2,750
1,44015,6,1,39,1,856
1,44015,6,2,11,1,1541
1,44015,6,3,15,3,1294
1,44015,6,4,2,2,1216
1,44015,6,5,43,1,1293
1,44015,6,6,36,3,996
1,44015,6,7,24,2,1233
1,44015,6,8,26,1,950
1,44015,7,1,16,2,809
1,44015,7,2,38,3,1305
1,44015,7,3,32,1,740
1,44015,7,4,45,1,629
1,44015,7,5,3,3,1254
1,44015,7,6,12,3,768
1,44015,7,7,22,3,1176
1,44015,7,8,29,2,709
1,44015,8,1,18,3,3170
1,44015,8,2,48,2,920
1,44015,8,3,2,2,704
1,44015,8,4,42,1,950
1,44015,8,5,31,1,748
1,44015,8,6,30,3,967
1,44015,8,7,21,3,853
1,44015,8,8,11,1,1191
1,44015,9,1,14,2,857
1,44015,9,2,5,1,654
1,44015,9,3,19,3,673
1,44015,9,4,40,1,1019
1,44015,9,5,27,3,1472
1,44015,9,6,33,2,800
1,44015,9,7,8,1,816
1,44015,9,8,44,3,822
1,44015,10,1,23,1,838
1,44015,10,2,47,3,666
1,44015,10,3,9,2,843
1,44015,10,4,15,3,1071
1,44015,10,5,34,3,676
1,44015,10,6,39,1,538
1,44015,10,7,1,3,572
1,44015,10,8,26,1,797
1,44015,11,1,13,3,580
1,44015,11,2,7,3,988
1,44015,11,3,20,3,970
1,44015,11,4,4,1,1461
1,44015,11,5,36,3,1090
1,44015,11,6,43,3,742
1,44015,11,7,37,3,1083
1,44015,11,8,25,1,2271
1,44015,12,1,46,1,646
1,44015,12,2,28,3,748
1,44015,12,3,6,1,841
1,44015,12,4,35,2,806
1,44015,12,5,10,1,735
1,44015,12,6,17,1,703
1,44015,12,7,41,2,1044
1,44015,12,8,24,3,1422
1,44016,1,1,16,3,2040
1,44016,1,2,35,2,978
1,44016,1,3,8,1,1103
1,44016,1,4,21,2,1122
1,44016,1,5,28,3,1396
1,44016,1,6,3,3,1163
1,44016,1,7,40,2,1544
1,44016,1,8,43,2,1065
1,44016,2,1,24,3,975
1,44016,2,2,26,3,1392
1,44016,2,3,10,3,1125
1,44016,2,4,37,2,1952
1,44016,2,5,6,1,1183
1,44016,2,6,13,3,1061
1,44016,2,7,33,2,1365
1,44016,2,8,47,3,1134
1,44016,3,1,20,3,1166
1,44016,3,2,15,3,1349
1,44016,3,3,39,3,1264
1,44016,3,4,7,3,2619
1,44016,3,5,46,1,1000
1,44016,3,6,36,2,1091
1,44016,3,7,4,2,1292
1,44016,3,8,27,1,1405
1,44016,4,1,9,2,1570
1,44016,4,2,34,2,1122
1,44016,4,3,19,1,1238
1,44016,4,4,48,2,1077
1,44016,4,5,14,2,1087
1,44016,4,6,41,2,2252
1,44016,4,7,2,2,1158
1,44016,4,8,29,1,1364
1,44016,5,1,42,2,901
1,44016,5,2,25,2,1063
1,44016,5,3,32,1,1030
1,44016,5,4,5,1,1076
1,44016,5,5,23,1,1322
1,44016,5,6,12,3,947
1,44016,5,7,45,2,1287
1,44016,5,8,17,2,1088
1,44016,6,1,38,3,901
1,44016,6,2,18,1,928
1,44016,6,3,22,3,1094
1,44016,6,4,30,2,1259
1,44016,6,5,11,2,977
1,44016,6,6,31,2,1023
1,44016,6,7,1,3,986
1,44016,6,8,44,2,971
1,44016,7,1,4,2,776
1,44016,7,2,43,2,812
1,44016,7,3,16,2,892
1,44016,7,4,24,2,1481
1,44016,7,5,42,2,910
1,44016,7,6,25,2,1057
1,44016,7,7,33,2,902
1,44016,7,8,10,2,1496
1,44016,8,1,48,2,777
1,44016,8,2,18,1,809
1,44016,8,3,35,2,950
1,44016,8,4,20,1,871
1,44016,8,5,27,2,852
1,44016,8,6,1,3,998
1,44016,8,7,12,2,1188
1,44016,8,8,39,3,1083
1,44016,9,1,34,3,898
1,44016,9,2,9,2,779
1,44016,9,3,14,2,836
1,44016,9,4,6,1,756
1,44016,9,5,26,2,1937
1,44016,9,6,22,1,796
1,44016,9,7,40,2,882
1,44016,9,8,45,2,1055
1,44016,10,1,31,2,849
1,44016,10,2,23,2,754
1,44016,10,3,3,3,879
1,44016,10,4,17,2,817
1,44016,10,5,37,3,899
1,44016,10,6,29,3,895
1,44016,10,7,46,2,981
1,44016,10,8,11,2,802
1,44016,11,1,2,2,798
1,44016,11,2,7,2,989
1,44016,11,3,28,3,914
1,44016,11,4,44,2,788
1,44016,11,5,21,2,842
1,44016,11,6,36,3,1265
1,44016,11,7,13,3,979
1,44016,11,8,38,2,932
1,44016,12,1,32,1,886
1,44016,12,2,15,2,1030
1,44016,12,3,30,2,863
1,44016,12,4,8,1,831
1,44016,12,5,5,1,878
1,44016,12,6,47,1,1027
1,44016,12,7,19,1,869
1,44016,12,8,41,2,919
1,44019,1,1,21,2,2461
1,44019,1,2,28,3,1800
1,44019,1,3,12,3,841
1,44019,1,4,39,2,1044
1,44019,1,5,34,3,987
1,44019,1,6,6,1,719
1,44019,1,7,17,2,929
1,44019,1,8,43,1,765
1,44019,2,1,7,1,566
1,44019,2,2,38,1,740
1,44019,2,3,29,2,831
1,44019,2,4,1,1,528
1,44019,2,5,31,1,723
1,44019,2,6,16,3,776
1,44019,2,7,46,3,1135
1,44019,2,8,24,3,459
1,44019,3,1,5,2,452
1,44019,3,2,45,1,602
1,44019,3,3,32,1,998
1,44019,3,4,20,2,1782
1,44019,3,5,18,3,514
1,44019,3,6,11,2,566
1,44019,3,7,41,2,1642
1,44019,3,8,30,3,843
1,44019,4,1,22,3,678
1,44019,4,2,3,2,454
1,44019,4,3,25,1,587
1,44019,4,4,15,3,936
1,44019,4,5,33,2,1329
1,44019,4,6,48,2,770
1,44019,4,7,42,3,482
1,44019,4,8,9,2,499
1,44019,5,1,13,1,813
1,44019,5,2,36,3,436
1,44019,5,3,10,3,434
1,44019,5,4,44,1,447
1,44019,5,5,23,2,564
1,44019,5,6,26,1,420
1,44019,5,7,40,3,499
1,44019,5,8,4,3,403
1,44019,6,1,27,2,690
1,44019,6,2,19,1,310
1,44019,6,3,37,1,648
1,44019,6,4,47,3,469
1,44019,6,5,2,1,392
1,44019,6,6,14,1,373
1,44019,6,7,35,3,819
1,44019,6,8,8,1,355
1,44019,7,1,25,1,514
1,44019,7,2,4,3,432
1,44019,7,3,44,1,519
1,44019,7,4,16,3,426
1,44019,7,5,40,2,799
1,44019,7,6,34,3,542
1,44019,7,7,10,3,713
1,44019,7,8,20,1,323
1,44019,8,1,31,1,375
1,44019,8,2,43,1,512
1,44019,8,3,3,2,381
1,44019,8,4,42,3,405
1,44019,8,5,12,3,387
1,44019,8,6,19,1,289
1,44019,8,7,13,1,358
1,44019,8,8,27,2,505
1,44019,9,1,18,3,641
1,44019,9,2,37,2,1506
1,44019,9,3,26,1,826
1,44019,9,4,9,2,602
1,44019,9,5,32,1,468
1,44019,9,6,5,2,419
1,44019,9,7,23,2,402
1,44019,9,8,46,3,380
1,44019,10,1,22,3,462
1,44019,10,2,38,3,727
1,44019,10,3,35,2,402
1,44019,10,4,48,3,659
1,44019,10,5,7,1,332
1,44019,10,6,15,2,503
1,44019,10,7,6,3,431
1,44019,10,8,30,3,464
1,44019,11,1,47,2,785
1,44019,11,2,8,1,293
1,44019,11,3,14,1,364
1,44019,11,4,29,2,512
1,44019,11,5,2,1,382
1,44019,11,6,36,3,361
1,44019,11,7,21,2,373
1,44019,11,8,39,3,914
1,44019,12,1,45,2,643
1,44019,12,2,33,2,447
1,44019,12,3,24,3,434
1,44019,12,4,1,1,300
1,44019,12,5,41,2,404
1,44019,12,6,28,3,374
1,44019,12,7,11,2,380
1,44019,12,8,17,2,487
1,46,1,1,11,2,3521
1,46,1,2,5,1,1347
1,46,1,3,26,1,1092
1,46,1,4,41,3,633
1,46,1,5,21,2,1497
1,46,1,6,13,3,593
1,46,1,7,34,3,902
1,46,1,8,48,3,2157
1,46,2,1,30,1,1010
1,46,2,2,20,2,563
1,46,2,3,4,2,460
1,46,2,4,8,1,893
1,46,2,5,40,2,1962
1,46,2,6,32,1,839
1,46,2,7,47,2,1205
1,46,2,8,16,2,1350
1,46,3,1,27,3,792
1,46,3,2,38,2,1132
1,46,3,3,33,2,877
1,46,3,4,2,2,590
1,46,3,5,45,1,1964
1,46,3,6,10,3,664
1,46,3,7,23,3,3136
1,46,3,8,18,2,1535
1,46,4,1,29,1,814
1,46,4,2,39,1,1259
1,46,4,3,15,3,506
1,46,4,4,22,2,934
1,46,4,5,1,3,750
1,46,4,6,12,3,1374
1,46,4,7,44,3,1571
1,46,4,8,36,1,1834
1,46,5,1,24,2,1097
1,46,5,2,9,2,755
1,46,5,3,31,1,691
1,46,5,4,14,2,635
1,46,5,5,43,2,734
1,46,5,6,37,3,1819
1,46,5,7,25,3,917
1,46,5,8,6,1,576
1,46,6,1,35,2,676
1,46,6,2,17,1,541
1,46,6,3,19,3,655
1,46,6,4,46,1,685
1,46,6,5,42,1,1464
1,46,6,6,7,3,684
1,46,6,7,3,3,526
1,46,6,8,28,1,1026
1,46,7,1,1,3,588
1,46,7,2,37,2,738
1,46,7,3,45,1,653
1,46,7,4,34,3,1049
1,46,7,5,10,3,1069
1,46,7,6,29,1,824
1,46,7,7,24,3,2215
1,46,7,8,13,3,588
1,46,8,1,22,2,525
1,46,8,2,17,1,545
1,46,8,3,33,3,825
1,46,8,4,39,2,971
1,46,8,5,3,3,625
1,46,8,6,27,3,1331
1,46,8,7,43,2,872
1,46,8,8,12,1,486
1,46,9,1,6,1,464
1,46,9,2,47,2,1013
1,46,9,3,8,1,790
1,46,9,4,31,1,970
1,46,9,5,18,1,545
1,46,9,6,25,3,584
1,46,9,7,41,2,1061
1,46,9,8,21,2,1011
1,46,10,1,30,1,815
1,46,10,2,42,1,1470
1,46,10,3,4,2,587
1,46,10,4,7,3,882
1,46,10,5,16,2,652
1,46,10,6,35,1,1267
1,46,10,7,19,3,565
1,46,10,8,46,3,1132
1,46,11,1,20,1,723
1,46,11,2,2,2,1339
1,46,11,3,48,1,876
1,46,11,4,9,3,654
1,46,11,5,26,1,1444
1,46,11,6,14,2,756
1,46,11,7,32,1,757
1,46,11,8,40,3,1025
1,46,12,1,44,3,865
1,46,12,2,5,1,520
1,46,12,3,28,3,803
1,46,12,4,15,3,508
1,46,12,5,38,2,1809
1,46,12,6,23,2,865
1,46,12,7,36,1,843
1,46,12,8,11,2,1378
1,47,1,1,27,3,2309
1,47,1,2,34,3,690
1,47,1,3,18,1,734
1,47,1,4,19,3,583
1,47,1,5,12,3,866
1,47,1,6,3,3,520
1,47,1,7,37,3,554
1,47,1,8,43,3,552
1,47,2,1,22,1,902
1,47,2,2,5,1,610
1,47,2,3,16,2,585
1,47,2,4,36,3,569
1,47,2,5,9,2,810
1,47,2,6,46,2,513
1,47,2,7,41,1,1101
1,47,2,8,29,1,951
1,47,3,1,44,2,533
1,47,3,2,31,1,645
1,47,3,3,26,2,514
1,47,3,4,23,1,627
1,47,3,5,10,1,880
1,47,3,6,39,3,446
1,47,3,7,1,3,435
1,47,3,8,17,1,464
1,47,4,1,6,1,430
1,47,4,2,11,2,853
1,47,4,3,15,3,397
1,47,4,4,47,1,382
1,47,4,5,35,2,1064
1,47,4,6,40,2,455
1,47,4,7,24,1,352
1,47,4,8,30,2,1964
1,47,5,1,32,1,883
1,47,5,2,7,1,1037
1,47,5,3,45,2,585
1,47,5,4,25,1,1065
1,47,5,5,38,2,373
1,47,5,6,21,3,494
1,47,5,7,14,2,589
1,47,5,8,4,2,480
1,47,6,1,13,3,456
1,47,6,2,42,1,328
1,47,6,3,8,3,843
1,47,6,4,28,2,549
1,47,6,5,48,2,361
1,47,6,6,2,2,380
1,47,6,7,33,3,767
1,47,6,8,20,2,384
1,47,7,1,25,3,519
1,47,7,2,32,1,776
1,47,7,3,15,3,509
1,47,7,4,4,2,310
1,47,7,5,43,2,372
1,47,7,6,19,3,358
1,47,7,7,10,2,349
1,47,7,8,38,2,497
1,47,8,1,30,2,949
1,47,8,2,18,1,380
1,47,8,3,9,3,527
1,47,8,4,34,3,735
1,47,8,5,47,1,489
1,47,8,6,1,3,425
1,47,8,7,37,3,644
1,47,8,8,21,3,560
1,47,9,1,27,1,522
1,47,9,2,11,1,497
1,47,9,3,17,1,378
1,47,9,4,44,2,440
1,47,9,5,2,2,389
1,47,9,6,20,2,361
1,47,9,7,36,2,1127
1,47,9,8,40,2,407
1,47,10,1,22,2,323
1,47,10,2,16,2,344
1,47,10,3,35,1,422
1,47,10,4,12,2,362
1,47,10,5,48,1,423
1,47,10,6,26,3,596
1,47,10,7,6,1,289
1,47,10,8,39,3,410
1,47,11,1,29,3,453
1,47,11,2,41,1,350
1,47,11,3,46,1,284
1,47,11,4,7,2,389
1,47,11,5,33,2,858
1,47,11,6,24,1,548
1,47,11,7,14,2,353
1,47,11,8,3,3,377
1,47,12,1,8,1,931
1,47,12,2,45,3,385
1,47,12,3,42,1,350
1,47,12,4,28,1,676
1,47,12,5,5,1,553
1,47,12,6,23,1,535
1,47,12,7,31,3,382
1,47,12,8,13,2,485
1,48,1,1,14,1,14958
1,48,1,2,35,1,1414
1,48,1,3,41,3,1756
1,48,1,4,45,1,2051
1,48,1,5,6,1,1502
1,48,1,6,12,1,778
1,48,1,7,23,2,2146
1,48,1,8,25,2,1512
1,48,2,1,42,2,1074
1,48,2,2,11,2,501
1,48,2,3,18,1,936
1,48,2,4,21,2,929
1,48,2,5,43,2,896
1,48,2,6,27,1,981
1,48,2,7,4,1,1141
1,48,2,8,32,1,1022
1,48,3,1,28,1,522
1,48,3,2,3,1,642
1,48,3,3,15,3,931
1,48,3,4,48,2,1090
1,48,3,5,20,1,968
1,48,3,6,39,2,1069
1,48,3,7,36,2,1061
1,48,3,8,10,3,1454
1,48,4,1,46,3,1050
1,48,4,2,29,3,867
1,48,4,3,24,2,1030
1,48,4,4,16,2,1689
1,48,4,5,1,3,1093
1,48,4,6,31,3,1494
1,48,4,7,8,1,1369
1,48,4,8,40,2,1127
1,48,5,1,9,3,1144
1,48,5,2,47,2,825
1,48,5,3,17,2,1097
1,48,5,4,2,2,973
1,48,5,5,38,3,1055
1,48,5,6,19,3,1065
1,48,5,7,33,2,2165
1,48,5,8,30,3,1107
1,48,6,1,7,3,882
1,48,6,2,37,3,846
1,48,6,3,13,3,876
1,48,6,4,44,3,881
1,48,6,5,34,3,821
1,48,6,6,26,3,842
1,48,6,7,5,1,965
1,48,6,8,22,3,890
1,48,7,1,41,3,921
1,48,7,2,35,2,852
1,48,7,3,24,3,1254
1,48,7,4,9,2,1058
1,48,7,5,47,3,1230
1,48,7,6,28,1,1020
1,48,7,7,6,1,1183
1,48,7,8,14,2,1621
1,48,8,1,31,3,865
1,48,8,2,42,3,927
1,48,8,3,2,2,821
1,48,8,4,15,3,1116
1,48,8,5,44,3,1083
1,48,8,6,22,3,1209
1,48,8,7,8,3,1042
1,48,8,8,29,3,942
1,48,9,1,1,3,926
1,48,9,2,37,3,500
1,48,9,3,30,2,940
1,48,9,4,32,3,1068
1,48,9,5,12,1,1006
1,48,9,6,17,1,985
1,48,9,7,21,3,877
1,48,9,8,48,1,910
1,48,10,1,11,1,993
1,48,10,2,23,2,864
1,48,10,3,45,1,789
1,48,10,4,5,1,1606
1,48,10,5,27,1,1061
1,48,10,6,16,2,1033
1,48,10,7,40,2,928
1,48,10,8,36,3,1145
1,48,11,1,43,3,921
1,48,11,2,13,3,1108
1,48,11,3,19,3,442
1,48,11,4,38,1,1003
1,48,11,5,33,2,1059
1,48,11,6,26,3,1020
1,48,11,7,7,3,1041
1,48,11,8,4,2,1151
1,48,12,1,25,3,1281
1,48,12,2,18,1,1003
1,48,12,3,39,3,805
1,48,12,4,3,3,749
1,48,12,5,34,3,1968
1,48,12,6,10,3,871
1,48,12,7,20,1,1176
1,48,12,8,46,1,1513
2,27,1,1,11,1,3387
2,27,1,2,45,3,509
2,27,1,3,33,1,938
2,27,1,4,26,3,431
2,27,1,5,22,3,483
2,27,1,6,42,1,599
2,27,1,7,1,3,612
2,27,1,8,17,2,884
2,27,2,1,10,3,461
2,27,2,2,21,2,318
2,27,2,3,44,3,368
2,27,2,4,40,1,524
2,27,2,5,6,1,628
2,27,2,6,30,2,360
2,27,2,7,31,1,410
2,27,2,8,13,3,402
2,27,3,1,25,2,332
2,27,3,2,43,2,377
2,27,3,3,8,1,304
2,27,3,4,35,3,603
2,27,3,5,24,3,320
2,27,3,6,39,3,322
2,27,3,7,3,3,1490
2,27,3,8,15,2,425
2,27,4,1,47,3,362
2,27,4,2,34,3,337
2,27,4,3,14,2,634
2,27,4,4,38,2,335
2,27,4,5,5,1,327
2,27,4,6,28,1,306
2,27,4,7,12,3,333
2,27,4,8,19,1,286
2,27,5,1,27,1,336
2,27,5,2,36,2,314
2,27,5,3,46,2,1068
2,27,5,4,18,3,326
2,27,5,5,4,2,438
2,27,5,6,9,2,458
2,27,5,7,23,2,322
2,27,5,8,37,3,314
2,27,6,1,7,1,329
2,27,6,2,16,2,279
2,27,6,3,32,1,291
2,27,6,4,20,1,287
2,27,6,5,41,1,275
2,27,6,6,48,1,1511
2,27,6,7,2,2,313
2,27,6,8,29,3,265
2,27,7,1,33,2,321
2,27,7,2,8,1,295
2,27,7,3,37,3,257
2,27,7,4,17,1,292
2,27,7,5,44,3,437
2,27,7,6,26,3,313
2,27,7,7,3,3,273
2,27,7,8,24,3,286
2,27,8,1,43,3,878
2,27,8,2,10,3,282
2,27,8,3,34,3,243
2,27,8,4,20,1,224
2,27,8,5,39,3,258
2,27,8,6,6,1,254
2,27,8,7,28,1,299
2,27,8,8,16,2,319
2,27,9,1,12,3,251
2,27,9,2,47,3,344
2,27,9,3,42,1,281
2,27,9,4,30,2,292
2,27,9,5,1,3,229
2,27,9,6,21,2,252
2,27,9,7,31,1,258
2,27,9,8,18,3,656
2,27,10,1,45,1,332
2,27,10,2,38,2,285
2,27,10,3,22,3,393
2,27,10,4,2,2,367
2,27,10,5,11,1,577
2,27,10,6,15,2,703
2,27,10,7,36,3,371
2,27,10,8,25,1,260
2,27,11,1,46,3,461
2,27,11,2,32,1,223
2,27,11,3,9,2,229
2,27,11,4,41,1,258
2,27,11,5,27,1,304
2,27,11,6,4,2,213
2,27,11,7,23,2,956
2,27,11,8,13,3,368
2,27,12,1,29,3,248
2,27,12,2,35,3,1243
2,27,12,3,48,1,423
2,27,12,4,14,2,303
2,27,12,5,19,1,387
2,27,12,6,5,1,330
2,27,12,7,40,2,274
2,27,12,8,7,3,303
2,28,1,1,6,3,2019
2,28,1,2,9,2,1460
2,28,1,3,43,2,730
2,28,1,4,26,3,452
2,28,1,5,16,2,509
2,28,1,6,41,1,416
2,28,1,7,22,3,1140
2,28,1,8,34,3,741
2,28,2,1,28,1,441
2,28,2,2,32,1,1452
2,28,2,3,39,3,601
2,28,2,4,15,3,1266
2,28,2,5,45,1,513
2,28,2,6,10,3,1236
2,28,2,7,20,2,761
2,28,2,8,3,3,536
2,28,3,1,25,2,326
2,28,3,2,1,3,472
2,28,3,3,36,2,530
2,28,3,4,11,2,1019
2,28,3,5,21,2,556
2,28,3,6,42,1,452
2,28,3,7,13,3,439
2,28,3,8,47,3,654
2,28,4,1,38,2,869
2,28,4,2,33,2,552
2,28,4,3,29,3,381
2,28,4,4,5,1,345
2,28,4,5,8,1,256
2,28,4,6,14,2,428
2,28,4,7,48,1,230
2,28,4,8,23,2,837
2,28,5,1,17,1,409
2,28,5,2,40,2,272
2,28,5,3,35,2,284
2,28,5,4,19,1,336
2,28,5,5,46,2,386
2,28,5,6,27,1,231
2,28,5,7,12,3,270
2,28,5,8,4,2,575
2,28,6,1,18,1,435
2,28,6,2,44,3,962
2,28,6,3,30,2,366
2,28,6,4,2,2,451
2,28,6,5,31,2,516
2,28,6,6,37,3,1459
2,28,6,7,7,1,458
2,28,6,8,24,3,277
2,28,7,1,36,3,446
2,28,7,2,47,1,316
2,28,7,3,39,3,346
2,28,7,4,5,1,209
2,28,7,5,15,3,1303
2,28,7,6,20,1,745
2,28,7,7,12,3,438
2,28,7,8,28,1,322
2,28,8,1,40,2,483
2,28,8,2,46,2,240
2,28,8,3,30,2,273
2,28,8,4,9,2,291
2,28,8,5,3,3,299
2,28,8,6,32,3,371
2,28,8,7,13,3,418
2,28,8,8,24,3,549
2,28,9,1,10,3,332
2,28,9,2,6,1,138
2,28,9,3,17,1,321
2,28,9,4,48,1,216
2,28,9,5,42,1,259
2,28,9,6,25,2,349
2,28,9,7,21,2,228
2,28,9,8,31,2,296
2,28,10,1,29,3,9
2,28,10,2,35,2,349
2,28,10,3,8,1,258
2,28,10,4,38,2,402
2,28,10,5,19,1,235
2,28,10,6,14,2,395
2,28,10,7,45,1,564
2,28,10,8,1,3,327
2,28,11,1,43,2,277
2,28,11,2,26,3,190
2,28,11,3,18,1,3418
2,28,11,4,7,1,518
2,28,11,5,2,2,304
2,28,11,6,34,3,415
2,28,11,7,37,3,721
2,28,11,8,23,2,256
2,28,12,1,33,2,210
2,28,12,2,4,3,376
2,28,12,3,44,2,392
2,28,12,4,16,2,3299
2,28,12,5,11,2,286
2,28,12,6,22,2,278
2,28,12,7,27,1,271
2,28,12,8,41,1,4346
2,29,1,1,5,1,975
2,29,1,2,38,2,3046
2,29,1,3,21,2,661
2,29,1,4,48,2,1617
2,29,1,5,8,1,3454
2,29,1,6,32,1,890
2,29,1,7,26,1,679
2,29,1,8,14,2,873
2,29,2,1,9,2,471
2,29,2,2,39,3,931
2,29,2,3,16,2,687
2,29,2,4,23,2,858
2,29,2,5,1,3,951
2,29,2,6,27,1,819
2,29,2,7,34,3,459
2,29,2,8,44,3,912
2,29,3,1,6,1,376
2,29,3,2,35,2,444
2,29,3,3,30,2,392
2,29,3,4,20,1,316
2,29,3,5,46,1,340
2,29,3,6,7,1,373
2,29,3,7,41,1,321
2,29,3,8,18,1,272
2,29,4,1,24,3,821
2,29,4,2,15,3,546
2,29,4,3,2,2,624
2,29,4,4,31,1,901
2,29,4,5,29,3,546
2,29,4,6,42,1,670
2,29,4,7,45,1,657
2,29,4,8,12,3,604
2,29,5,1,17,1,743
2,29,5,2,22,3,411
2,29,5,3,11,2,632
2,29,5,4,25,2,273
2,29,5,5,3,3,281
2,29,5,6,37,3,408
2,29,5,7,36,3,1137
2,29,5,8,47,3,655
2,29,6,1,4,2,1024
2,29,6,2,40,2,347
2,29,6,3,19,1,450
2,29,6,4,43,2,308
2,29,6,5,33,2,306
2,29,6,6,10,3,342
2,29,6,7,28,1,671
2,29,6,8,13,3,275
2,29,7,1,37,3,258
2,29,7,2,5,1,349
2,29,7,3,30,2,322
2,29,7,4,22,3,291
2,29,7,5,8,1,1143
2,29,7,6,15,3,525
2,29,7,7,31,1,289
2,29,7,8,44,3,364
2,29,8,1,18,1,274
2,29,8,2,1,3,333
2,29,8,3,21,2,402
2,29,8,4,46,1,351
2,29,8,5,27,1,679
2,29,8,6,41,1,386
2,29,8,7,10,3,338
2,29,8,8,32,1,305
2,29,9,1,39,3,313
2,29,9,2,14,2,244
2,29,9,3,7,1,298
2,29,9,4,20,2,301
2,29,9,5,6,1,249
2,29,9,6,47,1,2303
2,29,9,7,29,3,268
2,29,9,8,35,2,598
2,29,10,1,11,2,347
2,29,10,2,40,2,265
2,29,10,3,28,1,297
2,29,10,4,13,3,278
2,29,10,5,43,3,304
2,29,10,6,36,2,298
2,29,10,7,4,2,783
2,29,10,8,19,3,276
2,29,11,1,12,2,245
2,29,11,2,26,3,246
2,29,11,3,42,1,304
2,29,11,4,16,2,239
2,29,11,5,23,1,280
2,29,11,6,33,2,841
2,29,11,7,48,1,284
2,29,11,8,3,3,286
2,29,12,1,9,2,615
2,29,12,2,38,2,248
2,29,12,3,25,2,229
2,29,12,4,34,3,261
2,29,12,5,24,1,319
2,29,12,6,2,2,263
2,29,12,7,17,1,242
2,29,12,8,45,3,252
2,30,1,1,19,1,699
2,30,1,2,35,3,1103
2,30,1,3,28,1,746
2,30,1,4,48,3,1204
2,30,1,5,8,2,1088
2,30,1,6,14,2,887
2,30,1,7,37,3,512
2,30,1,8,5,1,456
2,30,2,1,41,1,364
2,30,2,2,20,1,329
2,30,2,3,46,2,320
2,30,2,4,13,3,616
2,30,2,5,3,3,278
2,30,2,6,30,2,305
2,30,2,7,33,1,1258
2,30,2,8,11,2,420
2,30,3,1,23,2,266
2,30,3,2,44,3,702
2,30,3,3,34,3,373
2,30,3,4,16,2,292
2,30,3,5,25,2,216
2,30,3,6,38,2,263
2,30,3,7,10,3,275
2,30,3,8,4,2,209
2,30,4,1,45,1,359
2,30,4,2,2,2,257
2,30,4,3,9,2,407
2,30,4,4,26,3,320
2,30,4,5,18,1,365
2,30,4,6,42,1,224
2,30,4,7,22,3,224
2,30,4,8,31,2,225
2,30,5,1,6,1,769
2,30,5,2,39,3,348
2,30,5,3,29,3,249
2,30,5,4,7,1,218
2,30,5,5,32,3,441
2,30,5,6,21,2,299
2,30,5,7,15,2,448
2,30,5,8,47,1,249
2,30,6,1,24,3,253
2,30,6,2,36,3,339
2,30,6,3,1,3,376
2,30,6,4,43,2,329
2,30,6,5,12,3,286
2,30,6,6,17,1,277
2,30,6,7,27,1,242
2,30,6,8,40,2,209
2,30,7,1,7,1,277
2,30,7,2,41,1,299
2,30,7,3,33,1,490
2,30,7,4,19,1,465
2,30,7,5,14,2,256
2,30,7,6,29,3,305
2,30,7,7,2,2,303
2,30,7,8,47,3,212
2,30,8,1,28,1,330
2,30,8,2,23,2,293
2,30,8,3,15,3,291
2,30,8,4,34,3,218
2,30,8,5,6,1,283
2,30,8,6,12,3,1912
2,30,8,7,37,3,194
2,30,8,8,43,3,28
2,30,9,1,38,2,242
2,30,9,2,48,1,481
2,30,9,3,1,3,1552
2,30,9,4,30,2,257
2,30,9,5,35,2,217
2,30,9,6,18,2,250
2,30,9,7,11,2,458
2,30,9,8,24,3,450
2,30,10,1,17,1,251
2,30,10,2,32,1,212
2,30,10,3,44,2,261
2,30,10,4,4,2,206
2,30,10,5,39,3,216
2,30,10,6,21,3,255
2,30,10,7,8,1,270
2,30,10,8,27,1,221
2,30,11,1,16,2,400
2,30,11,2,3,3,201
2,30,11,3,45,1,252
2,30,11,4,42,1,243
2,30,11,5,22,3,210
2,30,11,6,10,3,284
2,30,11,7,36,2,442
2,30,11,8,26,3,275
2,30,12,1,9,3,465
2,30,12,2,46,3,280
2,30,12,3,31,2,1423
2,30,12,4,13,1,818
2,30,12,5,20,1,266
2,30,12,6,25,2,218
2,30,12,7,40,2,243
2,30,12,8,5,2,1363
2,31,1,1,7,1,3204
2,31,1,2,44,3,492
2,31,1,3,24,3,1052
2,31,1,4,30,2,583
2,31,1,5,13,3,756
2,31,1,6,31,1,1521
2,31,1,7,6,1,422
2,31,1,8,39,3,515
2,31,2,1,35,2,859
2,31,2,2,37,3,649
2,31,2,3,45,1,410
2,31,2,4,15,3,330
2,31,2,5,19,2,1188
2,31,2,6,1,3,468
2,31,2,7,10,3,1534
2,31,2,8,26,3,507
2,31,3,1,18,1,418
2,31,3,2,43,2,265
2,31,3,3,42,1,485
2,31,3,4,20,1,411
2,31,3,5,27,1,490
2,31,3,6,11,2,1906
2,31,3,7,32,1,1540
2,31,3,8,5,1,262
2,31,4,1,12,3,222
2,31,4,2,47,3,232
2,31,4,3,23,1,446
2,31,4,4,3,3,1009
2,31,4,5,40,1,253
2,31,4,6,25,2,319
2,31,4,7,17,1,1702
2,31,4,8,33,1,385
2,31,5,1,22,3,237
2,31,5,2,34,1,226
2,31,5,3,38,2,562
2,31,5,4,4,2,237
2,31,5,5,29,3,271
2,31,5,6,46,1,217
2,31,5,7,16,2,336
2,31,5,8,8,2,854
2,31,6,1,48,2,282
2,31,6,2,2,2,323
2,31,6,3,28,1,512
2,31,6,4,41,3,295
2,31,6,5,14,1,287
2,31,6,6,36,2,385
2,31,6,7,21,2,214
2,31,6,8,9,2,262
2,31,7,1,19,1,318
2,31,7,2,45,1,846
2,31,7,3,40,1,223
2,31,7,4,7,1,529
2,31,7,5,33,1,246
2,31,7,6,17,2,1880
2,31,7,7,1,3,326
2,31,7,8,30,2,683
2,31,8,1,35,3,1180
2,31,8,2,8,2,269
2,31,8,3,4,2,317
2,31,8,4,27,1,285
2,31,8,5,38,2,282
2,31,8,6,21,2,235
2,31,8,7,47,3,286
2,31,8,8,16,3,345
2,31,9,1,23,2,260
2,31,9,2,14,2,246
2,31,9,3,12,3,1913
2,31,9,4,44,3,615
2,31,9,5,37,3,375
2,31,9,6,34,3,247
2,31,9,7,5,1,506
2,31,9,8,28,1,362
2,31,10,1,24,3,254
2,31,10,2,36,2,253
2,31,10,3,2,2,254
2,31,10,4,10,3,281
2,31,10,5,13,3,1046
2,31,10,6,41,1,297
2,31,10,7,46,1,283
2,31,10,8,26,3,476
2,31,11,1,9,3,2186
2,31,11,2,39,3,231
2,31,11,3,20,1,546
2,31,11,4,6,1,292
2,31,11,5,18,1,345
2,31,11,6,48,2,248
2,31,11,7,29,3,391
2,31,11,8,32,1,642
2,31,12,1,15,3,297
2,31,12,2,43,2,261
2,31,12,3,11,2,1260
2,31,12,4,31,1,417
2,31,12,5,25,2,269
2,31,12,6,22,3,303
2,31,12,7,42,1,202
2,31,12,8,3,3,490
2,34,1,1,39,3,97
2,34,1,2,24,3,454
2,34,1,3,3,3,681
2,34,1,4,31,2,736
2,34,1,5,14,2,428
2,34,1,6,10,3,489
2,34,1,7,47,1,556
2,34,1,8,27,1,659
2,34,2,1,32,1,352
2,34,2,2,18,3,395
2,34,2,3,37,3,337
2,34,2,4,6,1,325
2,34,2,5,11,2,411
2,34,2,6,44,3,413
2,34,2,7,21,2,312
2,34,2,8,29,3,487
2,34,3,1,8,1,302
2,34,3,2,42,1,457
2,34,3,3,45,1,408
2,34,3,4,16,2,330
2,34,3,5,23,2,461
2,34,3,6,5,1,349
2,34,3,7,34,3,409
2,34,3,8,25,2,420
2,34,4,1,12,3,287
2,34,4,2,38,2,482
2,34,4,3,15,3,339
2,34,4,4,28,1,375
2,34,4,5,33,2,335
2,34,4,6,1,3,595
2,34,4,7,19,1,432
2,34,4,8,43,2,556
2,34,5,1,36,3,369
2,34,5,2,13,3,485
2,34,5,3,4,2,332
2,34,5,4,22,3,314
2,34,5,5,26,3,319
2,34,5,6,41,1,320
2,34,5,7,9,2,413
2,34,5,8,46,1,325
2,34,6,1,35,2,499
2,34,6,2,48,2,1013
2,34,6,3,7,1,395
2,34,6,4,40,2,302
2,34,6,5,30,2,341
2,34,6,6,2,2,275
2,34,6,7,17,1,323
2,34,6,8,20,1,362
2,34,7,1,29,3,302
2,34,7,2,36,2,382
2,34,7,3,46,1,309
2,34,7,4,14,2,325
2,34,7,5,11,2,325
2,34,7,6,22,3,284
2,34,7,7,41,1,422
2,34,7,8,1,3,282
2,34,8,1,33,1,276
2,34,8,2,7,1,245
2,34,8,3,37,3,337
2,34,8,4,18,1,282
2,34,8,5,44,2,710
2,34,8,6,3,3,297
2,34,8,7,26,3,325
2,34,8,8,21,2,424
2,34,9,1,25,2,706
2,34,9,2,47,3,394
2,34,9,3,8,1,513
2,34,9,4,15,3,564
2,34,9,5,31,2,254
2,34,9,6,2,2,324
2,34,9,7,19,1,320
2,34,9,8,39,3,266
2,34,10,1,5,1,325
2,34,10,2,28,1,440
2,34,10,3,32,3,433
2,34,10,4,43,2,1063
2,34,10,5,10,3,356
2,34,10,6,16,2,284
2,34,10,7,42,1,385
2,34,10,8,23,2,255
2,34,11,1,40,2,334
2,34,11,2,48,2,286
2,34,11,3,27,1,348
2,34,11,4,24,3,485
2,34,11,5,17,1,257
2,34,11,6,9,2,238
2,34,11,7,4,2,286
2,34,11,8,34,3,316
2,34,12,1,6,1,255
2,34,12,2,35,2,837
2,34,12,3,12,3,262
2,34,12,4,38,2,230
2,34,12,5,30,2,272
2,34,12,6,20,1,652
2,34,12,7,13,3,306
2,34,12,8,45,1,343
2,35,1,1,46,2,1643
2,35,1,2,8,1,380
2,35,1,3,19,3,1735
2,35,1,4,16,3,1031
2,35,1,5,30,1,447
2,35,1,6,2,1,1166
2,35,1,7,40,3,1133
2,35,1,8,34,1,741
2,35,2,1,37,3,215
2,35,2,2,14,3,871
2,35,2,3,35,2,288
2,35,2,4,24,3,692
2,35,2,5,10,3,565
2,35,2,6,29,3,215
2,35,2,7,47,3,592
2,35,2,8,5,1,516
2,35,3,1,9,2,539
2,35,3,2,1,3,382
2,35,3,3,44,3,286
2,35,3,4,20,1,417
2,35,3,5,17,1,643
2,35,3,6,38,2,702
2,35,3,7,32,1,671
2,35,3,8,26,3,397
2,35,4,1,42,1,299
2,35,4,2,25,2,289
2,35,4,3,13,3,415
2,35,4,4,22,3,570
2,35,4,5,7,1,300
2,35,4,6,45,1,289
2,35,4,7,36,3,265
2,35,4,8,6,1,390
2,35,5,1,15,3,1376
2,35,5,2,3,3,260
2,35,5,3,28,1,465
2,35,5,4,12,1,961
2,35,5,5,39,3,1194
2,35,5,6,23,2,399
2,35,5,7,33,2,357
2,35,5,8,48,2,1029
2,35,6,1,27,1,528
2,35,6,2,43,2,268
2,35,6,3,31,1,295
2,35,6,4,18,1,504
2,35,6,5,21,3,1230
2,35,6,6,11,2,509
2,35,6,7,41,1,1564
2,35,6,8,4,2,530
2,35,7,1,28,1,225
2,35,7,2,40,2,351
2,35,7,3,8,1,288
2,35,7,4,14,2,219
2,35,7,5,2,2,319
2,35,7,6,23,2,305
2,35,7,7,48,2,277
2,35,7,8,35,3,1408
2,35,8,1,13,3,409
2,35,8,2,45,1,380
2,35,8,3,6,1,304
2,35,8,4,19,1,447
2,35,8,5,33,2,287
2,35,8,6,25,2,295
2,35,8,7,10,3,310
2,35,8,8,39,3,547
2,35,9,1,43,2,352
2,35,9,2,16,2,528
2,35,9,3,36,2,536
2,35,9,4,3,3,433
2,35,9,5,38,2,472
2,35,9,6,30,2,711
2,35,9,7,7,1,946
2,35,9,8,24,3,430
2,35,10,1,4,2,363
2,35,10,2,20,1,572
2,35,10,3,12,3,331
2,35,10,4,37,3,268
2,35,10,5,17,1,233
2,35,10,6,26,3,221
2,35,10,7,34,1,702
2,35,10,8,46,1,614
2,35,11,1,41,1,346
2,35,11,2,31,1,338
2,35,11,3,44,3,312
2,35,11,4,29,3,303
2,35,11,5,11,2,294
2,35,11,6,15,2,1222
2,35,11,7,5,1,410
2,35,11,8,21,2,379
2,35,12,1,32,3,444
2,35,12,2,9,2,708
2,35,12,3,1,3,528
2,35,12,4,47,3,863
2,35,12,5,27,1,1250
2,35,12,6,42,1,1260
2,35,12,7,18,1,395
2,35,12,8,22,3,751
2,36,1,1,45,3,2209
2,36,1,2,18,1,917
2,36,1,3,31,3,888
2,36,1,4,8,2,1621
2,36,1,5,40,2,2374
2,36,1,6,5,3,844
2,36,1,7,28,1,558
2,36,1,8,23,2,310
2,36,2,1,43,2,1890
2,36,2,2,37,2,311
2,36,2,3,33,1,441
2,36,2,4,24,3,282
2,36,2,5,29,3,237
2,36,2,6,15,3,227
2,36,2,7,9,3,201
2,36,2,8,2,2,315
2,36,3,1,30,2,327
2,36,3,2,47,1,404
2,36,3,3,21,3,261
2,36,3,4,1,3,243
2,36,3,5,11,1,161
2,36,3,6,41,1,217
2,36,3,7,13,3,190
2,36,3,8,32,2,238
2,36,4,1,22,2,416
2,36,4,2,14,2,198
2,36,4,3,46,2,270
2,36,4,4,3,3,234
2,36,4,5,26,3,248
2,36,4,6,12,1,214
2,36,4,7,35,3,240
2,36,4,8,38,2,193
2,36,5,1,16,2,376
2,36,5,2,19,3,173
2,36,5,3,36,1,214
2,36,5,4,39,3,242
2,36,5,5,6,1,251
2,36,5,6,44,2,466
2,36,5,7,27,1,238
2,36,5,8,10,1,214
2,36,6,1,17,1,223
2,36,6,2,7,3,40
2,36,6,3,20,2,173
2,36,6,4,4,2,225
2,36,6,5,48,1,52
2,36,6,6,25,2,231
2,36,6,7,42,1,255
2,36,6,8,34,2,241
2,36,7,1,37,3,158
2,36,7,2,5,1,55
2,36,7,3,26,3,205
2,36,7,4,11,1,168
2,36,7,5,47,1,218
2,36,7,6,18,1,253
2,36,7,7,19,2,247
2,36,7,8,33,3,233
2,36,8,1,4,2,191
2,36,8,2,14,2,292
2,36,8,3,39,3,268
2,36,8,4,23,1,183
2,36,8,5,7,3,173
2,36,8,6,31,2,234
2,36,8,7,45,3,124
2,36,8,8,25,2,249
2,36,9,1,44,2,221
2,36,9,2,27,1,225
2,36,9,3,32,3,267
2,36,9,4,22,2,227
2,36,9,5,15,3,211
2,36,9,6,10,2,175
2,36,9,7,38,2,4
2,36,9,8,6,1,229
2,36,10,1,40,2,242
2,36,10,2,29,3,252
2,36,10,3,12,1,206
2,36,10,4,36,2,181
2,36,10,5,2,2,282
2,36,10,6,48,1,225
2,36,10,7,16,2,262
2,36,10,8,24,1,111
2,36,11,1,41,3,24
2,36,11,2,28,1,188
2,36,11,3,21,3,185
2,36,11,4,9,3,226
2,36,11,5,1,3,86
2,36,11,6,43,3,199
2,36,11,7,17,1,213
2,36,11,8,34,2,418
2,36,12,1,46,1,68
2,36,12,2,20,2,183
2,36,12,3,30,1,236
2,36,12,4,35,3,934
2,36,12,5,8,2,172
2,36,12,6,13,3,1090
2,36,12,7,3,3,109
2,36,12,8,42,1,908
2,44,1,1,44,3,194
2,44,1,2,41,3,1088
2,44,1,3,10,3,1118
2,44,1,4,4,2,746
2,44,1,5,21,2,913
2,44,1,6,28,1,807
2,44,1,7,18,1,713
2,44,1,8,31,1,377
2,44,2,1,17,1,509
2,44,2,2,42,1,415
2,44,2,3,23,2,369
2,44,2,4,5,1,943
2,44,2,5,46,1,554
2,44,2,6,35,2,363
2,44,2,7,27,1,498
2,44,2,8,11,2,632
2,44,3,1,43,2,618
2,44,3,2,14,2,589
2,44,3,3,19,1,786
2,44,3,4,26,3,516
2,44,3,5,7,1,497
2,44,3,6,34,3,546
2,44,3,7,2,2,341
2,44,3,8,38,2,600
2,44,4,1,36,3,433
2,44,4,2,39,3,345
2,44,4,3,8,1,340
2,44,4,4,29,3,277
2,44,4,5,3,2,395
2,44,4,6,24,3,297
2,44,4,7,47,3,497
2,44,4,8,15,3,375
2,44,5,1,48,2,568
2,44,5,2,1,3,283
2,44,5,3,20,1,392
2,44,5,4,30,2,396
2,44,5,5,9,2,646
2,44,5,6,33,2,334
2,44,5,7,16,2,326
2,44,5,8,37,3,250
2,44,6,1,22,3,282
2,44,6,2,13,3,308
2,44,6,3,12,3,279
2,44,6,4,45,1,873
2,44,6,5,25,2,331
2,44,6,6,32,1,328
2,44,6,7,6,1,381
2,44,6,8,40,2,299
2,44,7,1,1,3,226
2,44,7,2,38,2,291
2,44,7,3,35,2,333
2,44,7,4,46,1,460
2,44,7,5,20,1,897
2,44,7,6,27,2,370
2,44,7,7,14,2,479
2,44,7,8,10,3,273
2,44,8,1,36,3,381
2,44,8,2,43,2,260
2,44,8,3,40,2,371
2,44,8,4,6,1,293
2,44,8,5,7,1,517
2,44,8,6,28,1,449
2,44,8,7,19,3,735
2,44,8,8,17,1,496
2,44,9,1,21,2,636
2,44,9,2,48,2,674
2,44,9,3,33,2,232
2,44,9,4,30,2,232
2,44,9,5,9,2,496
2,44,9,6,41,1,346
2,44,9,7,16,2,282
2,44,9,8,3,3,280
2,44,10,1,11,2,1059
2,44,10,2,18,1,326
2,44,10,3,44,3,584
2,44,10,4,32,1,723
2,44,10,5,39,3,248
2,44,10,6,22,2,311
2,44,10,7,5,1,578
2,44,10,8,26,3,548
2,44,11,1,47,3,402
2,44,11,2,13,3,251
2,44,11,3,24,1,418
2,44,11,4,29,3,452
2,44,11,5,34,3,296
2,44,11,6,42,1,348
2,44,11,7,12,3,317
2,44,11,8,4,2,364
2,44,12,1,8,1,257
2,44,12,2,25,1,252
2,44,12,3,31,1,290
2,44,12,4,2,1,261
2,44,12,5,23,2,682
2,44,12,6,15,3,338
2,44,12,7,37,3,700
2,44,12,8,45,1,385
2,44008,1,1,45,1,848
2,44008,1,2,12,3,1002
2,44008,1,3,2,2,667
2,44008,1,4,23,1,1245
2,44008,1,5,34,3,786
2,44008,1,6,17,2,786
2,44008,1,7,40,2,880
2,44008,1,8,28,1,744
2,44008,2,1,36,3,668
2,44008,2,2,22,1,901
2,44008,2,3,41,1,687
2,44008,2,4,27,1,837
2,44008,2,5,13,3,818
2,44008,2,6,48,1,598
2,44008,2,7,4,2,1173
2,44008,2,8,9,2,731
2,44008,3,1,31,1,510
2,44008,3,2,44,3,751
2,44008,3,3,26,3,948
2,44008,3,4,3,3,1121
2,44008,3,5,16,2,703
2,44008,3,6,7,1,842
2,44008,3,7,39,3,840
2,44008,3,8,21,2,680
2,44008,4,1,32,1,449
2,44008,4,2,38,2,586
2,44008,4,3,1,3,550
2,44008,4,4,47,3,685
2,44008,4,5,19,1,766
2,44008,4,6,10,3,641
2,44008,4,7,29,3,489
2,44008,4,8,15,3,617
2,44008,5,1,11,2,408
2,44008,5,2,18,3,530
2,44008,5,3,37,3,521
2,44008,5,4,46,2,923
2,44008,5,5,30,2,595
2,44008,5,6,5,1,575
2,44008,5,7,24,1,565
2,44008,5,8,35,2,427
2,44008,6,1,25,2,449
2,44008,6,2,42,1,681
2,44008,6,3,20,1,593
2,44008,6,4,8,1,476
2,44008,6,5,6,1,500
2,44008,6,6,43,2,589
2,44008,6,7,33,2,554
2,44008,6,8,14,2,512
2,44008,7,1,39,3,532
2,44008,7,2,28,1,353
2,44008,7,3,17,1,406
2,44008,7,4,22,3,601
2,44008,7,5,45,1,1207
2,44008,7,6,9,2,724
2,44008,7,7,31,2,445
2,44008,7,8,2,2,386
2,44008,8,1,21,3,1146
2,44008,8,2,8,1,506
2,44008,8,3,35,2,405
2,44008,8,4,41,1,674
2,44008,8,5,44,2,381
2,44008,8,6,4,2,493
2,44008,8,7,26,3,614
2,44008,8,8,14,2,436
2,44008,9,1,6,1,435
2,44008,9,2,10,3,401
2,44008,9,3,20,2,432
2,44008,9,4,16,2,414
2,44008,9,5,47,3,1640
2,44008,9,6,40,2,486
2,44008,9,7,25,2,537
2,44008,9,8,34,3,945
2,44008,10,1,38,2,430
2,44008,10,2,27,1,427
2,44008,10,3,15,3,435
2,44008,10,4,11,2,401
2,44008,10,5,48,2,478
2,44008,10,6,5,1,395
2,44008,10,7,33,2,616
2,44008,10,8,23,1,1414
2,44008,11,1,7,1,1213
2,44008,11,2,42,1,588
2,44008,11,3,3,3,880
2,44008,11,4,43,3,957
2,44008,11,5,29,3,532
2,44008,11,6,36,3,780
2,44008,11,7,19,1,545
2,44008,11,8,18,2,921
2,44008,12,1,30,2,421
2,44008,12,2,12,3,600
2,44008,12,3,37,3,822
2,44008,12,4,1,1,506
2,44008,12,5,46,2,1766
2,44008,12,6,32,1,411
2,44008,12,7,24,3,554
2,44008,12,8,13,1,364
2,44009,1,1,35,2,1306
2,44009,1,2,39,3,1493
2,44009,1,3,45,1,795
2,44009,1,4,12,3,584
2,44009,1,5,1,3,1013
2,44009,1,6,14,1,2704
2,44009,1,7,19,1,751
2,44009,1,8,27,1,364
2,44009,2,1,42,1,162
2,44009,2,2,30,2,492
2,44009,2,3,10,3,966
2,44009,2,4,21,2,394
2,44009,2,5,33,2,553
2,44009,2,6,6,1,401
2,44009,2,7,17,1,310
2,44009,2,8,44,3,1282
2,44009,3,1,5,1,448
2,44009,3,2,25,2,359
2,44009,3,3,32,1,480
2,44009,3,4,22,3,332
2,44009,3,5,8,1,750
2,44009,3,6,37,3,303
2,44009,3,7,15,3,650
2,44009,3,8,47,3,599
2,44009,4,1,28,1,606
2,44009,4,2,34,3,615
2,44009,4,3,43,2,691
2,44009,4,4,13,3,397
2,44009,4,5,3,3,627
2,44009,4,6,41,1,600
2,44009,4,7,20,1,374
2,44009,4,8,7,1,557
2,44009,5,1,38,2,1447
2,44009,5,2,31,1,184
2,44009,5,3,2,2,545
2,44009,5,4,23,2,688
2,44009,5,5,9,2,588
2,44009,5,6,26,3,368
2,44009,5,7,16,2,306
2,44009,5,8,46,1,564
2,44009,6,1,40,2,721
2,44009,6,2,36,3,343
2,44009,6,3,24,3,318
2,44009,6,4,4,2,465
2,44009,6,5,48,2,726
2,44009,6,6,11,2,640
2,44009,6,7,18,1,350
2,44009,6,8,29,3,361
2,44009,7,1,16,2,668
2,44009,7,2,25,2,447
2,44009,7,3,9,2,691
2,44009,7,4,34,1,466
2,44009,7,5,5,1,358
2,44009,7,6,41,1,595
2,44009,7,7,43,2,699
2,44009,7,8,22,3,321
2,44009,8,1,45,1,286
2,44009,8,2,7,1,308
2,44009,8,3,24,3,266
2,44009,8,4,13,1,259
2,44009,8,5,6,1,458
2,44009,8,6,38,2,351
2,44009,8,7,32,3,450
2,44009,8,8,27,1,221
2,44009,9,1,33,1,1011
2,44009,9,2,19,1,217
2,44009,9,3,29,3,462
2,44009,9,4,17,2,673
2,44009,9,5,12,1,1165
2,44009,9,6,2,2,272
2,44009,9,7,40,1,347
2,44009,9,8,46,1,354
2,44009,10,1,39,3,512
2,44009,10,2,4,2,220
2,44009,10,3,11,1,252
2,44009,10,4,14,2,324
2,44009,10,5,30,2,671
2,44009,10,6,44,3,358
2,44009,10,7,21,2,408
2,44009,10,8,35,2,833
2,44009,11,1,47,3,459
2,44009,11,2,31,2,786
2,44009,11,3,42,1,1349
2,44009,11,4,1,3,481
2,44009,11,5,26,3,569
2,44009,11,6,15,3,780
2,44009,11,7,20,1,495
2,44009,11,8,8,2,526
2,44009,12,1,3,3,562
2,44009,12,2,18,1,346
2,44009,12,3,36,3,914
2,44009,12,4,37,3,1572
2,44009,12,5,23,2,247
2,44009,12,6,48,1,750
2,44009,12,7,10,3,469
2,44009,12,8,28,1,251
2,44010,1,1,33,2,95
2,44010,1,2,22,3,5344
2,44010,1,3,27,1,380
2,44010,1,4,7,1,393
2,44010,1,5,17,2,402
2,44010,1,6,40,2,719
2,44010,1,7,43,1,428
2,44010,1,8,5,2,317
2,44010,2,1,46,1,473
2,44010,2,2,1,1,347
2,44010,2,3,10,3,450
2,44010,2,4,18,1,873
2,44010,2,5,42,3,432
2,44010,2,6,25,2,1317
2,44010,2,7,23,2,429
2,44010,2,8,32,3,1083
2,44010,3,1,47,3,342
2,44010,3,2,41,3,435
2,44010,3,3,11,2,419
2,44010,3,4,26,1,348
2,44010,3,5,14,1,477
2,44010,3,6,3,2,404
2,44010,3,7,24,3,450
2,44010,3,8,34,1,428
2,44010,4,1,44,1,914
2,44010,4,2,12,3,304
2,44010,4,3,19,1,126
2,44010,4,4,38,1,838
2,44010,4,5,6,3,168
2,44010,4,6,28,1,736
2,44010,4,7,16,2,431
2,44010,4,8,36,3,2109
2,44010,5,1,2,2,357
2,44010,5,2,31,2,404
2,44010,5,3,8,1,316
2,44010,5,4,21,2,504
2,44010,5,5,39,1,885
2,44010,5,6,13,3,395
2,44010,5,7,29,3,349
2,44010,5,8,45,1,298
2,44010,6,1,9,2,288
2,44010,6,2,4,2,433
2,44010,6,3,37,3,528
2,44010,6,4,35,2,368
2,44010,6,5,15,1,1811
2,44010,6,6,20,1,333
2,44010,6,7,48,1,404
2,44010,6,8,30,2,306
2,44010,7,1,34,3,362
2,44010,7,2,38,2,410
2,44010,7,3,13,3,288
2,44010,7,4,5,1,298
2,44010,7,5,43,3,331
2,44010,7,6,24,3,317
2,44010,7,7,11,2,534
2,44010,7,8,25,2,234
2,44010,8,1,10,3,305
2,44010,8,2,40,2,489
2,44010,8,3,2,2,442
2,44010,8,4,15,3,414
2,44010,8,5,31,1,400
2,44010,8,6,22,3,388
2,44010,8,7,28,1,329
2,44010,8,8,45,3,329
2,44010,9,1,12,3,349
2,44010,9,2,48,2,403
2,44010,9,3,14,2,334
2,44010,9,4,6,1,421
2,44010,9,5,20,1,386
2,44010,9,6,27,1,623
2,44010,9,7,42,1,300
2,44010,9,8,32,1,373
2,44010,10,1,1,3,341
2,44010,10,2,16,2,349
2,44010,10,3,46,1,366
2,44010,10,4,9,2,364
2,44010,10,5,23,2,332
2,44010,10,6,37,3,363
2,44010,10,7,36,3,435
2,44010,10,8,30,2,375
2,44010,11,1,17,1,400
2,44010,11,2,26,3,387
2,44010,11,3,44,1,577
2,44010,11,4,7,1,375
2,44010,11,5,35,2,294
2,44010,11,6,21,2,481
2,44010,11,7,41,1,395
2,44010,11,8,4,2,362
2,44010,12,1,33,2,390
2,44010,12,2,18,1,381
2,44010,12,3,8,1,355
2,44010,12,4,29,3,611
2,44010,12,5,3,3,456
2,44010,12,6,39,3,419
2,44010,12,7,19,1,590
2,44010,12,8,47,1,574
2,44011,1,1,40,3,2930
2,44011,1,2,6,1,432
2,44011,1,3,45,1,446
2,44011,1,4,12,3,1622
2,44011,1,5,17,1,1863
2,44011,1,6,31,1,544
2,44011,1,7,20,1,464
2,44011,1,8,27,1,399
2,44011,2,1,23,3,547
2,44011,2,2,34,3,172
2,44011,2,3,46,1,309
2,44011,2,4,25,2,516
2,44011,2,5,42,1,330
2,44011,2,6,3,3,310
2,44011,2,7,18,1,325
2,44011,2,8,10,3,2250
2,44011,3,1,43,2,774
2,44011,3,2,4,2,290
2,44011,3,3,33,2,793
2,44011,3,4,28,1,386
2,44011,3,5,38,2,452
2,44011,3,6,21,2,348
2,44011,3,7,8,1,1992
2,44011,3,8,13,3,248
2,44011,4,1,37,3,317
2,44011,4,2,7,1,73
2,44011,4,3,48,2,875
2,44011,4,4,5,1,297
2,44011,4,5,16,2,278
2,44011,4,6,22,2,1967
2,44011,4,7,32,1,396
2,44011,4,8,26,3,349
2,44011,5,1,36,3,1971
2,44011,5,2,1,3,471
2,44011,5,3,15,3,257
2,44011,5,4,41,1,1874
2,44011,5,5,30,2,349
2,44011,5,6,24,3,322
2,44011,5,7,47,3,304
2,44011,5,8,11,2,350
2,44011,6,1,14,2,160
2,44011,6,2,39,3,279
2,44011,6,3,2,2,372
2,44011,6,4,35,1,3435
2,44011,6,5,29,3,342
2,44011,6,6,9,3,508
2,44011,6,7,19,1,356
2,44011,6,8,44,3,298
2,44011,7,1,33,3,1428
2,44011,7,2,21,2,521
2,44011,7,3,8,1,279
2,44011,7,4,43,2,302
2,44011,7,5,28,1,302
2,44011,7,6,3,3,295
2,44011,7,7,13,3,279
2,44011,7,8,42,1,185
2,44011,8,1,29,3,4916
2,44011,8,2,20,1,318
2,44011,8,3,35,3,342
2,44011,8,4,7,1,380
2,44011,8,5,40,1,432
2,44011,8,6,17,1,378
2,44011,8,7,1,3,254
2,44011,8,8,45,1,329
2,44011,9,1,25,2,465
2,44011,9,2,6,1,349
2,44011,9,3,39,3,296
2,44011,9,4,9,2,1360
2,44011,9,5,15,3,284
2,44011,9,6,34,3,772
2,44011,9,7,46,1,281
2,44011,9,8,23,2,248
2,44011,10,1,36,3,573
2,44011,10,2,18,1,329
2,44011,10,3,30,2,252
2,44011,10,4,38,2,45
2,44011,10,5,5,1,268
2,44011,10,6,19,1,190
2,44011,10,7,48,2,1425
2,44011,10,8,11,2,197
2,44011,11,1,27,1,335
2,44011,11,2,16,2,579
2,44011,11,3,22,3,321
2,44011,11,4,32,2,959
2,44011,11,5,4,2,468
2,44011,11,6,10,3,230
2,44011,11,7,47,3,288
2,44011,11,8,41,3,1086
2,44011,12,1,2,2,417
2,44011,12,2,14,2,336
2,44011,12,3,44,3,271
2,44011,12,4,24,3,295
2,44011,12,5,26,3,214
2,44011,12,6,12,3,200
2,44011,12,7,37,1,1171
2,44011,12,8,31,2,337
2,44013,1,1,6,1,881
2,44013,1,2,17,1,1642
2,44013,1,3,11,1,529
2,44013,1,4,42,2,2606
2,44013,1,5,29,3,107
2,44013,1,6,19,2,320
2,44013,1,7,31,1,743
2,44013,1,8,46,1,467
2,44013,2,1,16,2,336
2,44013,2,2,7,3,2359
2,44013,2,3,1,3,546
2,44013,2,4,32,1,386
2,44013,2,5,37,2,55
2,44013,2,6,28,2,872
2,44013,2,7,43,2,444
2,44013,2,8,22,1,1571
2,44013,3,1,27,2,61
2,44013,3,2,41,1,231
2,44013,3,3,14,2,240
2,44013,3,4,35,2,292
2,44013,3,5,48,2,273
2,44013,3,6,10,2,379
2,44013,3,7,2,2,311
2,44013,3,8,24,3,426
2,44013,4,1,30,2,807
2,44013,4,2,23,2,355
2,44013,4,3,15,3,569
2,44013,4,4,34,3,291
2,44013,4,5,5,1,212
2,44013,4,6,39,3,213
2,44013,4,7,45,3,223
2,44013,4,8,12,3,419
2,44013,5,1,18,3,562
2,44013,5,2,21,3,510
2,44013,5,3,25,1,45
2,44013,5,4,44,2,146
2,44013,5,5,9,3,287
2,44013,5,6,40,2,340
2,44013,5,7,4,2,492
2,44013,5,8,36,3,174
2,44013,6,1,26,1,1506
2,44013,6,2,3,2,374
2,44013,6,3,8,2,499
2,44013,6,4,20,1,377
2,44013,6,5,33,1,387
2,44013,6,6,38,2,465
2,44013,6,7,47,1,367
2,44013,6,8,13,1,520
2,44013,7,1,28,1,923
2,44013,7,2,14,2,354
2,44013,7,3,2,2,490
2,44013,7,4,23,2,326
2,44013,7,5,41,1,685
2,44013,7,6,31,1,290
2,44013,7,7,12,2,256
2,44013,7,8,43,2,238
2,44013,8,1,34,1,215
2,44013,8,2,20,1,289
2,44013,8,3,3,3,491
2,44013,8,4,39,3,950
2,44013,8,5,27,2,289
2,44013,8,6,7,1,428
2,44013,8,7,45,2,416
2,44013,8,8,16,3,626
2,44013,9,1,6,3,512
2,44013,9,2,24,1,423
2,44013,9,3,9,3,437
2,44013,9,4,48,2,340
2,44013,9,5,42,1,604
2,44013,9,6,18,2,366
2,44013,9,7,30,2,625
2,44013,9,8,35,3,293
2,44013,10,1,37,2,506
2,44013,10,2,1,3,604
2,44013,10,3,29,3,307
2,44013,10,4,21,2,260
2,44013,10,5,33,1,264
2,44013,10,6,44,2,227
2,44013,10,7,10,2,310
2,44013,10,8,13,3,623
2,44013,11,1,32,1,296
2,44013,11,2,46,2,237
2,44013,11,3,17,1,194
2,44013,11,4,11,2,202
2,44013,11,5,25,2,338
2,44013,11,6,22,1,347
2,44013,11,7,40,2,185
2,44013,11,8,4,2,185
2,44013,12,1,38,2,632
2,44013,12,2,8,2,213
2,44013,12,3,36,2,304
2,44013,12,4,15,2,197
2,44013,12,5,47,3,7
2,44013,12,6,19,1,129
2,44013,12,7,26,3,141
2,44013,12,8,5,1,497
2,44017,1,1,35,2,458
2,44017,1,2,26,1,2011
2,44017,1,3,19,1,2503
2,44017,1,4,39,2,651
2,44017,1,5,48,2,439
2,44017,1,6,5,1,733
2,44017,1,7,10,3,465
2,44017,1,8,13,3,346
2,44017,2,1,22,3,523
2,44017,2,2,47,3,802
2,44017,2,3,28,3,337
2,44017,2,4,9,2,421
2,44017,2,5,18,3,373
2,44017,2,6,2,1,404
2,44017,2,7,40,3,681
2,44017,2,8,31,1,701
2,44017,3,1,24,3,426
2,44017,3,2,6,3,554
2,44017,3,3,12,3,245
2,44017,3,4,41,1,271
2,44017,3,5,32,1,314
2,44017,3,6,30,3,417
2,44017,3,7,14,3,497
2,44017,3,8,45,1,353
2,44017,4,1,27,1,714
2,44017,4,2,23,1,446
2,44017,4,3,42,2,98
2,44017,4,4,16,3,449
2,44017,4,5,33,1,281
2,44017,4,6,44,1,290
2,44017,4,7,7,3,806
2,44017,4,8,1,3,348
2,44017,5,1,8,1,474
2,44017,5,2,3,1,398
2,44017,5,3,34,2,137
2,44017,5,4,25,2,413
2,44017,5,5,46,3,454
2,44017,5,6,20,2,347
2,44017,5,7,15,1,297
2,44017,5,8,38,1,279
2,44017,6,1,29,1,586
2,44017,6,2,11,1,363
2,44017,6,3,43,3,731
2,44017,6,4,37,3,268
2,44017,6,5,21,2,602
2,44017,6,6,36,2,127
2,44017,6,7,17,2,286
2,44017,6,8,4,2,116
2,44017,7,1,34,3,475
2,44017,7,2,15,3,328
2,44017,7,3,28,3,292
2,44017,7,4,8,1,289
2,44017,7,5,39,3,351
2,44017,7,6,48,2,517
2,44017,7,7,5,1,422
2,44017,7,8,19,1,301
2,44017,8,1,35,1,271
2,44017,8,2,46,2,263
2,44017,8,3,1,1,210
2,44017,8,4,10,3,253
2,44017,8,5,17,1,221
2,44017,8,6,27,1,303
2,44017,8,7,42,1,311
2,44017,8,8,24,1,1610
2,44017,9,1,36,3,130
2,44017,9,2,43,1,357
2,44017,9,3,30,1,423
2,44017,9,4,20,1,365
2,44017,9,5,41,1,322
2,44017,9,6,4,2,378
2,44017,9,7,12,3,277
2,44017,9,8,14,2,615
2,44017,10,1,3,1,396
2,44017,10,2,45,1,306
2,44017,10,3,9,2,220
2,44017,10,4,33,2,249
2,44017,10,5,26,3,260
2,44017,10,6,13,3,352
2,44017,10,7,23,3,319
2,44017,10,8,37,3,393
2,44017,11,1,47,3,461
2,44017,11,2,18,3,118
2,44017,11,3,21,3,312
2,44017,11,4,32,1,381
2,44017,11,5,7,1,499
2,44017,11,6,29,3,241
2,44017,11,7,6,3,362
2,44017,11,8,38,1,294
2,44017,12,1,16,1,387
2,44017,12,2,2,1,343
2,44017,12,3,22,1,268
2,44017,12,4,44,3,354
2,44017,12,5,11,2,221
2,44017,12,6,31,1,238
2,44017,12,7,25,1,398
2,44017,12,8,40,3,369
2,44021,1,1,45,1,839
2,44021,1,2,37,2,524
2,44021,1,3,2,2,663
2,44021,1,4,17,1,898
2,44021,1,5,30,2,428
2,44021,1,6,9,2,498
2,44021,1,7,36,2,2319
2,44021,1,8,19,1,677
2,44021,2,1,18,1,1340
2,44021,2,2,31,1,952
2,44021,2,3,11,2,420
2,44021,2,4,39,3,788
2,44021,2,5,5,1,1589
2,44021,2,6,25,2,33
2,44021,2,7,22,3,562
2,44021,2,8,46,1,1750
2,44021,3,1,41,1,454
2,44021,3,2,6,1,291
2,44021,3,3,26,3,336
2,44021,3,4,13,1,722
2,44021,3,5,34,3,535
2,44021,3,6,12,3,541
2,44021,3,7,24,1,956
2,44021,3,8,43,2,333
2,44021,4,1,4,2,474
2,44021,4,2,38,2,582
2,44021,4,3,7,1,453
2,44021,4,4,23,2,365
2,44021,4,5,27,1,337
2,44021,4,6,35,2,406
2,44021,4,7,47,1,749
2,44021,4,8,14,2,696
2,44021,5,1,29,3,911
2,44021,5,2,16,2,448
2,44021,5,3,3,2,541
2,44021,5,4,8,3,1206
2,44021,5,5,48,2,446
2,44021,5,6,32,1,639
2,44021,5,7,21,2,526
2,44021,5,8,42,1,490
2,44021,6,1,1,1,527
2,44021,6,2,15,2,425
2,44021,6,3,28,1,364
2,44021,6,4,33,2,313
2,44021,6,5,20,1,350
2,44021,6,6,10,3,538
2,44021,6,7,40,2,188
2,44021,6,8,44,3,1220
2,44021,7,1,9,2,495
2,44021,7,2,46,1,163
2,44021,7,3,3,3,765
2,44021,7,4,25,2,320
2,44021,7,5,19,1,639
2,44021,7,6,13,3,319
2,44021,7,7,42,1,294
2,44021,7,8,36,3,326
2,44021,8,1,10,3,458
2,44021,8,2,1,3,274
2,44021,8,3,45,1,265
2,44021,8,4,23,2,307
2,44021,8,5,34,1,292
2,44021,8,6,14,2,389
2,44021,8,7,37,3,402
2,44021,8,8,27,1,431
2,44021,9,1,18,1,330
2,44021,9,2,5,1,312
2,44021,9,3,32,1,512
2,44021,9,4,44,3,753
2,44021,9,5,21,2,1065
2,44021,9,6,12,3,653
2,44021,9,7,41,1,305
2,44021,9,8,26,3,372
2,44021,10,1,40,3,404
2,44021,10,2,24,3,302
2,44021,10,3,4,2,245
2,44021,10,4,8,1,265
2,44021,10,5,28,1,340
2,44021,10,6,16,2,300
2,44021,10,7,31,1,335
2,44021,10,8,43,2,336
2,44021,11,1,15,3,916
2,44021,11,2,39,3,228
2,44021,11,3,33,2,809
2,44021,11,4,47,3,566
2,44021,11,5,2,2,173
2,44021,11,6,29,3,439
2,44021,11,7,20,1,346
2,44021,11,8,7,1,250
2,44021,12,1,38,2,392
2,44021,12,2,17,2,816
2,44021,12,3,6,1,282
2,44021,12,4,11,2,374
2,44021,12,5,30,2,535
2,44021,12,6,48,2,374
2,44021,12,7,35,2,247
2,44021,12,8,22,3,1068
2,45,1,1,8,1,1080
2,45,1,2,30,3,672
2,45,1,3,20,1,589
2,45,1,4,47,3,378
2,45,1,5,15,3,134
2,45,1,6,1,3,1452
2,45,1,7,35,2,414
2,45,1,8,38,3,457
2,45,2,1,6,1,349
2,45,2,2,36,3,336
2,45,2,3,44,3,301
2,45,2,4,23,2,317
2,45,2,5,25,1,341
2,45,2,6,37,2,259
2,45,2,7,13,3,269
2,45,2,8,7,1,264
2,45,3,1,3,3,489
2,45,3,2,28,3,215
2,45,3,3,19,1,216
2,45,3,4,34,3,352
2,45,3,5,42,2,330
2,45,3,6,14,2,297
2,45,3,7,9,2,307
2,45,3,8,48,2,335
2,45,4,1,24,3,602
2,45,4,2,39,1,401
2,45,4,3,26,1,353
2,45,4,4,43,2,353
2,45,4,5,12,3,345
2,45,4,6,31,1,234
2,45,4,7,18,1,210
2,45,4,8,2,2,347
2,45,5,1,17,1,445
2,45,5,2,27,2,247
2,45,5,3,5,1,297
2,45,5,4,11,1,271
2,45,5,5,21,3,364
2,45,5,6,41,3,365
2,45,5,7,45,1,274
2,45,5,8,33,2,296
2,45,6,1,4,2,334
2,45,6,2,10,2,243
2,45,6,3,40,2,513
2,45,6,4,29,2,314
2,45,6,5,22,3,272
2,45,6,6,46,1,246
2,45,6,7,16,2,238
2,45,6,8,32,1,187
2,45,7,1,27,2,210
2,45,7,2,9,3,372
2,45,7,3,14,2,264
2,45,7,4,23,1,228
2,45,7,5,35,2,238
2,45,7,6,38,3,324
2,45,7,7,5,1,64
2,45,7,8,45,1,293
2,45,8,1,19,1,221
2,45,8,2,7,3,1391
2,45,8,3,32,1,290
2,45,8,4,42,2,311
2,45,8,5,28,3,290
2,45,8,6,1,3,333
2,45,8,7,16,2,319
2,45,8,8,44,3,314
2,45,9,1,40,2,428
2,45,9,2,33,2,832
2,45,9,3,43,2,255
2,45,9,4,20,3,519
2,45,9,5,12,3,411
2,45,9,6,13,3,627
2,45,9,7,25,1,252
2,45,9,8,6,1,252
2,45,10,1,39,3,314
2,45,10,2,17,1,239
2,45,10,3,2,2,224
2,45,10,4,30,3,315
2,45,10,5,47,3,354
2,45,10,6,11,2,438
2,45,10,7,22,2,411
2,45,10,8,34,3,206
2,45,11,1,18,1,292
2,45,11,2,29,2,259
2,45,11,3,46,1,866
2,45,11,4,37,2,242
2,45,11,5,4,2,201
2,45,11,6,36,3,204
2,45,11,7,24,1,231
2,45,11,8,8,1,209
2,45,12,1,15,3,286
2,45,12,2,3,3,230
2,45,12,3,21,2,207
2,45,12,4,26,1,262
2,45,12,5,10,3,269
2,45,12,6,41,1,211
2,45,12,7,48,1,310
2,45,12,8,31,1,378
