cond,subj,blk,trial,triad,resp,rt,left1,mid2,right3
1,18,1,1,9,2,3030,5,1,7
1,18,1,2,36,1,2843,4,2,1
1,18,1,3,19,2,1381,2,6,8
1,18,1,4,40,2,1187,7,8,5
1,18,1,5,25,2,1393,1,2,3
1,18,1,6,13,3,1024,2,4,8
1,18,1,7,47,1,1415,8,6,7
1,18,1,8,2,2,1053,1,7,3
1,18,2,1,30,1,1747,3,2,1
1,18,2,2,37,2,1028,5,7,8
1,18,2,3,20,2,966,2,8,6
1,18,2,4,35,2,743,4,1,2
1,18,2,5,15,3,1477,4,2,8
1,18,2,6,45,1,1539,7,6,8
1,18,2,7,11,1,2520,7,1,5
1,18,2,8,5,1,1224,7,1,3
1,18,3,1,44,2,861,6,8,7
1,18,3,2,42,2,1135,8,7,5
1,18,3,3,22,1,750,6,8,2
1,18,3,4,6,1,715,7,3,1
1,18,3,5,12,1,612,7,5,1
1,18,3,6,28,2,957,2,3,1
1,18,3,7,34,3,903,2,4,1
1,18,3,8,18,1,618,8,4,2
1,18,4,1,4,2,619,3,7,1
1,18,4,2,32,1,604,1,4,2
1,18,4,3,24,3,813,8,6,2
1,18,4,4,10,3,969,5,7,1
1,18,4,5,46,2,707,7,8,6
1,18,4,6,38,2,1039,5,8,7
1,18,4,7,14,2,700,2,8,4
1,18,4,8,26,3,655,1,3,2
1,18,5,1,43,2,557,6,7,8
1,18,5,2,17,1,1323,8,2,4
1,18,5,3,29,3,780,3,1,2
1,18,5,4,31,1,1244,1,2,4
1,18,5,5,39,3,706,7,5,8
1,18,5,6,21,2,684,6,2,8
1,18,5,7,3,3,517,3,1,7
1,18,5,8,7,1,759,1,5,7
1,18,6,1,27,1,1371,2,1,3
1,18,6,2,16,2,715,4,8,2
1,18,6,3,48,2,1103,8,7,6
1,18,6,4,8,2,840,1,7,5
1,18,6,5,41,2,672,8,5,7
1,18,6,6,1,3,535,1,3,7
1,18,6,7,33,2,568,2,1,4
1,18,6,8,23,2,729,8,2,6
1,18,7,1,28,1,826,2,3,1
1,18,7,2,3,3,620,3,1,7
1,18,7,3,14,2,478,2,8,4
1,18,7,4,22,3,470,6,8,2
1,18,7,5,12,3,524,7,5,1
1,18,7,6,37,3,655,5,7,8
1,18,7,7,44,3,760,6,8,7
1,18,7,8,36,3,619,4,2,1
1,18,8,1,19,3,635,2,6,8
1,18,8,2,47,3,486,8,6,7
1,18,8,3,9,2,640,5,1,7
1,18,8,4,29,3,510,3,1,2
1,18,8,5,34,3,559,2,4,1
1,18,8,6,16,2,701,4,8,2
1,18,8,7,40,2,1185,7,8,5
1,18,8,8,5,1,1045,7,1,3
1,18,9,1,23,2,478,8,2,6
1,18,9,2,7,1,689,1,5,7
1,18,9,3,32,1,906,1,4,2
1,18,9,4,2,1,1092,1,7,3
1,18,9,5,46,2,630,7,8,6
1,18,9,6,27,2,613,2,1,3
1,18,9,7,41,2,567,8,5,7
1,18,9,8,17,1,615,8,2,4
1,18,10,1,39,3,569,7,5,8
1,18,10,2,26,3,677,1,3,2
1,18,10,3,31,2,465,1,2,4
1,18,10,4,45,2,475,7,6,8
1,18,10,5,20,2,449,2,8,6
1,18,10,6,6,1,576,7,3,1
1,18,10,7,10,3,552,5,7,1
1,18,10,8,13,3,530,2,4,8
1,18,11,1,25,2,627,1,2,3
1,18,11,2,4,2,498,3,7,1
1,18,11,3,8,2,542,1,7,5
1,18,11,4,38,2,463,5,8,7
1,18,11,5,18,1,671,8,4,2
1,18,11,6,43,2,467,6,7,8
1,18,11,7,35,2,496,4,1,2
1,18,11,8,21,2,501,6,2,8
1,18,12,1,42,2,402,8,7,5
1,18,12,2,15,3,527,4,2,8
1,18,12,3,48,2,517,8,7,6
1,18,12,4,24,3,635,8,6,2
1,18,12,5,30,2,542,3,2,1
1,18,12,6,33,2,567,2,1,4
1,18,12,7,11,2,519,7,1,5
1,18,12,8,1,3,466,1,3,7
1,20,1,1,3,3,1841,3,1,7
1,20,1,2,35,2,848,4,1,2
1,20,1,3,28,2,566,2,3,1
1,20,1,4,7,3,621,1,5,7
1,20,1,5,41,1,646,8,5,7
1,20,1,6,13,3,345,2,4,8
1,20,1,7,44,2,543,6,8,7
1,20,1,8,22,2,594,6,8,2
1,20,2,1,4,2,341,3,7,1
1,20,2,2,45,1,473,7,6,8
1,20,2,3,12,2,481,7,5,1
1,20,2,4,19,3,518,2,6,8
1,20,2,5,15,2,631,4,2,8
1,20,2,6,31,2,511,1,2,4
1,20,2,7,29,2,479,3,1,2
1,20,2,8,40,3,279,7,8,5
1,20,3,1,48,2,405,8,7,6
1,20,3,2,27,2,384,2,1,3
1,20,3,3,9,2,361,5,1,7
1,20,3,4,21,2,679,6,2,8
1,20,3,5,16,2,732,4,8,2
1,20,3,6,34,2,245,2,4,1
1,20,3,7,5,2,143,7,1,3
1,20,3,8,42,2,547,8,7,5
1,20,4,1,33,1,188,2,1,4
1,20,4,2,38,2,15,5,8,7
1,20,4,3,18,3,169,8,4,2
1,20,4,4,1,2,112,1,3,7
1,20,4,5,23,1,559,8,2,6
1,20,4,6,11,2,161,7,1,5
1,20,4,7,46,2,559,7,8,6
1,20,4,8,25,2,478,1,2,3
1,20,5,1,24,2,546,8,6,2
1,20,5,2,6,3,833,7,3,1
1,20,5,3,47,2,658,8,6,7
1,20,5,4,26,2,711,1,3,2
1,20,5,5,32,2,285,1,4,2
1,20,5,6,8,2,370,1,7,5
1,20,5,7,39,3,338,7,5,8
1,20,5,8,14,2,102,2,8,4
1,20,6,1,37,3,396,5,7,8
1,20,6,2,2,3,233,1,7,3
1,20,6,3,10,3,463,5,7,1
1,20,6,4,17,2,245,8,2,4
1,20,6,5,30,1,246,3,2,1
1,20,6,6,36,2,365,4,2,1
1,20,6,7,20,3,115,2,8,6
1,20,6,8,43,3,145,6,7,8
1,20,7,1,19,3,414,2,6,8
1,20,7,2,47,2,181,8,6,7
1,20,7,3,28,1,397,2,3,1
1,20,7,4,38,3,211,5,8,7
1,20,7,5,9,2,297,5,1,7
1,20,7,6,15,1,65,4,2,8
1,20,7,7,34,3,137,2,4,1
1,20,7,8,5,2,462,7,1,3
1,20,8,1,42,3,171,8,7,5
1,20,8,2,21,2,282,6,2,8
1,20,8,3,6,3,369,7,3,1
1,20,8,4,26,2,148,1,3,2
1,20,8,5,35,2,488,4,1,2
1,20,8,6,11,3,193,7,1,5
1,20,8,7,13,2,18,2,4,8
1,20,8,8,46,3,44,7,8,6
1,20,9,1,3,2,76,3,1,7
1,20,9,2,14,3,47,2,8,4
1,20,9,3,10,2,156,5,7,1
1,20,9,4,39,2,1125,7,5,8
1,20,9,5,20,2,735,2,8,6
1,20,9,6,33,1,602,2,1,4
1,20,9,7,45,1,87,7,6,8
1,20,9,8,30,3,147,3,2,1
1,20,10,1,1,3,284,1,3,7
1,20,10,2,40,3,67,7,8,5
1,20,10,3,24,2,212,8,6,2
1,20,10,4,32,3,33,1,4,2
1,20,10,5,16,3,289,4,8,2
1,20,10,6,44,3,329,6,8,7
1,20,10,7,25,3,9,1,2,3
1,20,10,8,7,3,232,1,5,7
1,20,11,1,17,2,179,8,2,4
1,20,11,2,8,2,142,1,7,5
1,20,11,3,29,3,180,3,1,2
1,20,11,4,48,2,18,8,7,6
1,20,11,5,4,1,249,3,7,1
1,20,11,6,41,2,52,8,5,7
1,20,11,7,23,3,198,8,2,6
1,20,11,8,36,2,193,4,2,1
1,20,12,1,2,3,83,1,7,3
1,20,12,2,27,3,52,2,1,3
1,20,12,3,22,1,81,6,8,2
1,20,12,4,18,3,143,8,4,2
1,20,12,5,31,1,644,1,2,4
1,20,12,6,43,3,210,6,7,8
1,20,12,7,12,2,181,7,5,1
1,20,12,8,37,3,186,5,7,8
1,22,1,1,18,1,801,8,4,2
1,22,1,2,31,2,2141,1,2,4
1,22,1,3,24,1,979,8,6,2
1,22,1,4,30,2,769,3,2,1
1,22,1,5,7,1,720,1,5,7
1,22,1,6,39,3,505,7,5,8
1,22,1,7,6,3,877,7,3,1
1,22,1,8,47,1,480,8,6,7
1,22,2,1,4,1,725,3,7,1
1,22,2,2,32,3,940,1,4,2
1,22,2,3,20,1,451,2,8,6
1,22,2,4,48,1,534,8,7,6
1,22,2,5,38,2,582,5,8,7
1,22,2,6,10,3,894,5,7,1
1,22,2,7,17,2,619,8,2,4
1,22,2,8,25,1,1176,1,2,3
1,22,3,1,44,2,762,6,8,7
1,22,3,2,21,2,824,6,2,8
1,22,3,3,33,1,657,2,1,4
1,22,3,4,41,1,481,8,5,7
1,22,3,5,15,2,664,4,2,8
1,22,3,6,27,1,537,2,1,3
1,22,3,7,1,1,962,1,3,7
1,22,3,8,8,2,798,1,7,5
1,22,4,1,46,2,581,7,8,6
1,22,4,2,3,1,475,3,1,7
1,22,4,3,22,2,633,6,8,2
1,22,4,4,14,2,786,2,8,4
1,22,4,5,35,3,925,4,1,2
1,22,4,6,29,3,690,3,1,2
1,22,4,7,9,2,1018,5,1,7
1,22,4,8,40,2,563,7,8,5
1,22,5,1,36,2,497,4,2,1
1,22,5,2,45,3,487,7,6,8
1,22,5,3,16,2,500,4,8,2
1,22,5,4,42,1,484,8,7,5
1,22,5,5,26,3,442,1,3,2
1,22,5,6,12,3,940,7,5,1
1,22,5,7,23,2,460,8,2,6
1,22,5,8,5,1,1189,7,1,3
1,22,6,1,28,1,493,2,3,1
1,22,6,2,43,3,514,6,7,8
1,22,6,3,11,2,713,7,1,5
1,22,6,4,37,3,472,5,7,8
1,22,6,5,19,1,424,2,6,8
1,22,6,6,34,1,994,2,4,1
1,22,6,7,13,1,461,2,4,8
1,22,6,8,2,1,541,1,7,3
1,22,7,1,17,2,566,8,2,4
1,22,7,2,4,3,1115,3,7,1
1,22,7,3,38,2,526,5,8,7
1,22,7,4,8,1,461,1,7,5
1,22,7,5,26,3,463,1,3,2
1,22,7,6,21,2,481,6,2,8
1,22,7,7,36,3,972,4,2,1
1,22,7,8,48,1,484,8,7,6
1,22,8,1,12,3,488,7,5,1
1,22,8,2,40,2,430,7,8,5
1,22,8,3,30,2,503,3,2,1
1,22,8,4,13,1,461,2,4,8
1,22,8,5,45,3,748,7,6,8
1,22,8,6,1,1,512,1,3,7
1,22,8,7,32,3,646,1,4,2
1,22,8,8,24,3,479,8,6,2
1,22,9,1,9,2,646,5,1,7
1,22,9,2,3,2,544,3,1,7
1,22,9,3,16,3,581,4,8,2
1,22,9,4,42,1,536,8,7,5
1,22,9,5,47,1,505,8,6,7
1,22,9,6,31,1,657,1,2,4
1,22,9,7,25,1,509,1,2,3
1,22,9,8,20,2,622,2,8,6
1,22,10,1,10,3,497,5,7,1
1,22,10,2,39,3,480,7,5,8
1,22,10,3,46,2,442,7,8,6
1,22,10,4,35,3,906,4,1,2
1,22,10,5,22,3,498,6,8,2
1,22,10,6,28,1,513,2,3,1
1,22,10,7,14,2,1297,2,8,4
1,22,10,8,6,3,566,7,3,1
1,22,11,1,43,3,444,6,7,8
1,22,11,2,41,1,413,8,5,7
1,22,11,3,18,1,856,8,4,2
1,22,11,4,27,1,564,2,1,3
1,22,11,5,11,2,520,7,1,5
1,22,11,6,34,3,502,2,4,1
1,22,11,7,23,2,501,8,2,6
1,22,11,8,2,1,467,1,7,3
1,22,12,1,7,1,446,1,5,7
1,22,12,2,15,2,454,4,2,8
1,22,12,3,37,3,446,5,7,8
1,22,12,4,5,2,912,7,1,3
1,22,12,5,29,3,500,3,1,2
1,22,12,6,19,1,427,2,6,8
1,22,12,7,44,2,525,6,8,7
1,22,12,8,33,1,763,2,1,4
1,23,1,1,26,3,1422,1,3,2
1,23,1,2,44,3,1094,6,8,7
1,23,1,3,23,2,1162,8,2,6
1,23,1,4,8,1,2180,1,7,5
1,23,1,5,32,1,1420,1,4,2
1,23,1,6,5,1,731,7,1,3
1,23,1,7,38,2,1250,5,8,7
1,23,1,8,18,1,1167,8,4,2
1,23,2,1,4,2,692,3,7,1
1,23,2,2,40,2,620,7,8,5
1,23,2,3,12,1,1290,7,5,1
1,23,2,4,47,1,1429,8,6,7
1,23,2,5,13,3,1112,2,4,8
1,23,2,6,22,3,1275,6,8,2
1,23,2,7,30,2,721,3,2,1
1,23,2,8,34,1,505,2,4,1
1,23,3,1,1,3,827,1,3,7
1,23,3,2,36,3,903,4,2,1
1,23,3,3,14,2,749,2,8,4
1,23,3,4,9,3,683,5,1,7
1,23,3,5,20,2,1428,2,8,6
1,23,3,6,48,2,597,8,7,6
1,23,3,7,41,3,640,8,5,7
1,23,3,8,28,3,969,2,3,1
1,23,4,1,10,2,892,5,7,1
1,23,4,2,25,2,552,1,2,3
1,23,4,3,42,2,542,8,7,5
1,23,4,4,31,2,610,1,2,4
1,23,4,5,17,2,619,8,2,4
1,23,4,6,3,3,751,3,1,7
1,23,4,7,45,1,683,7,6,8
1,23,4,8,21,1,1076,6,2,8
1,23,5,1,11,1,609,7,1,5
1,23,5,2,29,3,399,3,1,2
1,23,5,3,24,3,621,8,6,2
1,23,5,4,46,2,676,7,8,6
1,23,5,5,6,1,838,7,3,1
1,23,5,6,35,3,536,4,1,2
1,23,5,7,37,3,614,5,7,8
1,23,5,8,15,3,644,4,2,8
1,23,6,1,27,1,533,2,1,3
1,23,6,2,43,3,781,6,7,8
1,23,6,3,2,2,579,1,7,3
1,23,6,4,19,3,1120,2,6,8
1,23,6,5,16,3,378,4,8,2
1,23,6,6,33,1,645,2,1,4
1,23,6,7,39,3,594,7,5,8
1,23,6,8,7,3,584,1,5,7
1,23,7,1,23,2,610,8,2,6
1,23,7,2,31,2,466,1,2,4
1,23,7,3,26,3,389,1,3,2
1,23,7,4,18,3,501,8,4,2
1,23,7,5,42,1,563,8,7,5
1,23,7,6,11,3,470,7,1,5
1,23,7,7,48,2,594,8,7,6
1,23,7,8,1,3,363,1,3,7
1,23,8,1,7,3,419,1,5,7
1,23,8,2,20,1,384,2,8,6
1,23,8,3,16,3,302,4,8,2
1,23,8,4,36,2,475,4,2,1
1,23,8,5,6,1,737,7,3,1
1,23,8,6,30,2,339,3,2,1
1,23,8,7,45,1,715,7,6,8
1,23,8,8,40,3,479,7,8,5
1,23,9,1,19,1,816,2,6,8
1,23,9,2,14,1,343,2,8,4
1,23,9,3,47,3,608,8,6,7
1,23,9,4,29,3,336,3,1,2
1,23,9,5,33,1,278,2,1,4
1,23,9,6,5,1,471,7,1,3
1,23,9,7,10,3,325,5,7,1
1,23,9,8,37,2,677,5,7,8
1,23,10,1,46,1,675,7,8,6
1,23,10,2,34,1,649,2,4,1
1,23,10,3,39,3,474,7,5,8
1,23,10,4,13,1,618,2,4,8
1,23,10,5,3,1,364,3,1,7
1,23,10,6,27,1,438,2,1,3
1,23,10,7,8,3,495,1,7,5
1,23,10,8,22,3,426,6,8,2
1,23,11,1,43,1,633,6,7,8
1,23,11,2,12,1,674,7,5,1
1,23,11,3,38,2,505,5,8,7
1,23,11,4,17,2,478,8,2,4
1,23,11,5,4,2,562,3,7,1
1,23,11,6,28,2,395,2,3,1
1,23,11,7,35,3,420,4,1,2
1,23,11,8,24,3,757,8,6,2
1,23,12,1,25,2,571,1,2,3
1,23,12,2,44,3,596,6,8,7
1,23,12,3,32,3,718,1,4,2
1,23,12,4,15,2,462,4,2,8
1,23,12,5,2,2,524,1,7,3
1,23,12,6,9,2,532,5,1,7
1,23,12,7,41,2,644,8,5,7
1,23,12,8,21,3,801,6,2,8
1,24,1,1,4,2,1730,3,7,1
1,24,1,2,26,3,970,1,3,2
1,24,1,3,45,1,1093,7,6,8
1,24,1,4,35,2,2357,4,1,2
1,24,1,5,23,2,790,8,2,6
1,24,1,6,17,1,802,8,2,4
1,24,1,7,37,3,1752,5,7,8
1,24,1,8,12,3,710,7,5,1
1,24,2,1,39,3,900,7,5,8
1,24,2,2,16,2,805,4,8,2
1,24,2,3,8,1,755,1,7,5
1,24,2,4,31,1,880,1,2,4
1,24,2,5,47,3,863,8,6,7
1,24,2,6,20,1,614,2,8,6
1,24,2,7,30,2,1605,3,2,1
1,24,2,8,3,3,748,3,1,7
1,24,3,1,13,3,725,2,4,8
1,24,3,2,32,1,2993,1,4,2
1,24,3,3,7,1,856,1,5,7
1,24,3,4,38,1,1317,5,8,7
1,24,3,5,29,3,747,3,1,2
1,24,3,6,44,3,716,6,8,7
1,24,3,7,5,1,782,7,1,3
1,24,3,8,19,1,873,2,6,8
1,24,4,1,28,1,1420,2,3,1
1,24,4,2,10,3,612,5,7,1
1,24,4,3,2,2,983,1,7,3
1,24,4,4,40,2,860,7,8,5
1,24,4,5,21,2,582,6,2,8
1,24,4,6,36,3,640,4,2,1
1,24,4,7,48,2,1178,8,7,6
1,24,4,8,14,2,634,2,8,4
1,24,5,1,27,1,696,2,1,3
1,24,5,2,9,2,726,5,1,7
1,24,5,3,22,3,687,6,8,2
1,24,5,4,33,2,606,2,1,4
1,24,5,5,1,3,734,1,3,7
1,24,5,6,42,1,1211,8,7,5
1,24,5,7,18,1,666,8,4,2
1,24,5,8,43,2,857,6,7,8
1,24,6,1,34,3,996,2,4,1
1,24,6,2,6,1,933,7,3,1
1,24,6,3,46,1,617,7,8,6
1,24,6,4,41,1,910,8,5,7
1,24,6,5,24,3,596,8,6,2
1,24,6,6,25,2,898,1,2,3
1,24,6,7,11,2,572,7,1,5
1,24,6,8,15,3,1636,4,2,8
1,24,7,1,9,2,496,5,1,7
1,24,7,2,47,3,541,8,6,7
1,24,7,3,14,2,742,2,8,4
1,24,7,4,36,3,837,4,2,1
1,24,7,5,1,3,681,1,3,7
1,24,7,6,39,2,715,7,5,8
1,24,7,7,30,2,788,3,2,1
1,24,7,8,19,1,780,2,6,8
1,24,8,1,18,1,1140,8,4,2
1,24,8,2,34,2,968,2,4,1
1,24,8,3,45,1,652,7,6,8
1,24,8,4,10,3,713,5,7,1
1,24,8,5,25,2,652,1,2,3
1,24,8,6,40,2,1641,7,8,5
1,24,8,7,24,3,744,8,6,2
1,24,8,8,5,1,699,7,1,3
1,24,9,1,35,2,584,4,1,2
1,24,9,2,13,3,784,2,4,8
1,24,9,3,2,2,632,1,7,3
1,24,9,4,38,2,711,5,8,7
1,24,9,5,20,1,731,2,8,6
1,24,9,6,48,3,1477,8,7,6
1,24,9,7,26,3,1003,1,3,2
1,24,9,8,8,1,625,1,7,5
1,24,10,1,16,2,610,4,8,2
1,24,10,2,23,2,1159,8,2,6
1,24,10,3,11,2,513,7,1,5
1,24,10,4,4,2,1179,3,7,1
1,24,10,5,41,1,950,8,5,7
1,24,10,6,28,1,975,2,3,1
1,24,10,7,33,1,1303,2,1,4
1,24,10,8,43,3,1877,6,7,8
1,24,11,1,17,1,748,8,2,4
1,24,11,2,7,1,628,1,5,7
1,24,11,3,37,3,882,5,7,8
1,24,11,4,46,1,1030,7,8,6
1,24,11,5,29,3,750,3,1,2
1,24,11,6,21,2,1279,6,2,8
1,24,11,7,31,1,759,1,2,4
1,24,11,8,6,1,937,7,3,1
1,24,12,1,42,1,674,8,7,5
1,24,12,2,44,3,664,6,8,7
1,24,12,3,22,3,553,6,8,2
1,24,12,4,3,2,1206,3,1,7
1,24,12,5,12,3,749,7,5,1
1,24,12,6,27,1,703,2,1,3
1,24,12,7,15,3,596,4,2,8
1,24,12,8,32,1,914,1,4,2
1,25,1,1,18,2,4799,8,4,2
1,25,1,2,11,2,985,7,1,5
1,25,1,3,20,1,1118,2,8,6
1,25,1,4,39,3,2958,7,5,8
1,25,1,5,34,3,1278,2,4,1
1,25,1,6,25,2,855,1,2,3
1,25,1,7,5,2,1487,7,1,3
1,25,1,8,44,1,847,6,8,7
1,25,2,1,42,3,1506,8,7,5
1,25,2,2,24,3,795,8,6,2
1,25,2,3,2,2,749,1,7,3
1,25,2,4,28,1,672,2,3,1
1,25,2,5,9,2,542,5,1,7
1,25,2,6,32,1,918,1,4,2
1,25,2,7,14,2,1314,2,8,4
1,25,2,8,45,2,853,7,6,8
1,25,3,1,17,2,848,8,2,4
1,25,3,2,21,2,531,6,2,8
1,25,3,3,37,3,1599,5,7,8
1,25,3,4,46,3,987,7,8,6
1,25,3,5,12,3,724,7,5,1
1,25,3,6,30,2,908,3,2,1
1,25,3,7,35,2,554,4,1,2
1,25,3,8,6,2,1226,7,3,1
1,25,4,1,26,3,838,1,3,2
1,25,4,2,1,1,653,1,3,7
1,25,4,3,33,2,652,2,1,4
1,25,4,4,10,3,588,5,7,1
1,25,4,5,48,2,821,8,7,6
1,25,4,6,16,2,953,4,8,2
1,25,4,7,41,1,1313,8,5,7
1,25,4,8,19,1,526,2,6,8
1,25,5,1,40,3,2205,7,8,5
1,25,5,2,22,3,1403,6,8,2
1,25,5,3,4,2,640,3,7,1
1,25,5,4,47,2,899,8,6,7
1,25,5,5,13,1,817,2,4,8
1,25,5,6,36,2,570,4,2,1
1,25,5,7,29,3,792,3,1,2
1,25,5,8,8,1,638,1,7,5
1,25,6,1,3,2,838,3,1,7
1,25,6,2,31,2,1374,1,2,4
1,25,6,3,15,2,500,4,2,8
1,25,6,4,27,1,1004,2,1,3
1,25,6,5,38,2,654,5,8,7
1,25,6,6,7,3,1192,1,5,7
1,25,6,7,43,2,947,6,7,8
1,25,6,8,23,2,512,8,2,6
1,25,7,1,12,3,906,7,5,1
1,25,7,2,33,2,680,2,1,4
1,25,7,3,1,3,791,1,3,7
1,25,7,4,42,3,2189,8,7,5
1,25,7,5,16,2,554,4,8,2
1,25,7,6,21,2,499,6,2,8
1,25,7,7,45,2,2643,7,6,8
1,25,7,8,30,2,487,3,2,1
1,25,8,1,36,3,1202,4,2,1
1,25,8,2,38,2,629,5,8,7
1,25,8,3,24,3,904,8,6,2
1,25,8,4,2,2,739,1,7,3
1,25,8,5,15,2,536,4,2,8
1,25,8,6,25,2,448,1,2,3
1,25,8,7,7,1,823,1,5,7
1,25,8,8,43,2,794,6,7,8
1,25,9,1,13,3,1040,2,4,8
1,25,9,2,4,2,610,3,7,1
1,25,9,3,11,2,654,7,1,5
1,25,9,4,39,3,686,7,5,8
1,25,9,5,34,2,562,2,4,1
1,25,9,6,23,2,413,8,2,6
1,25,9,7,29,3,724,3,1,2
1,25,9,8,48,2,1436,8,7,6
1,25,10,1,20,1,625,2,8,6
1,25,10,2,14,1,503,2,8,4
1,25,10,3,44,3,967,6,8,7
1,25,10,4,32,1,597,1,4,2
1,25,10,5,26,3,961,1,3,2
1,25,10,6,9,2,627,5,1,7
1,25,10,7,3,3,815,3,1,7
1,25,10,8,40,2,551,7,8,5
1,25,11,1,28,1,818,2,3,1
1,25,11,2,5,1,769,7,1,3
1,25,11,3,19,3,1208,2,6,8
1,25,11,4,17,1,497,8,2,4
1,25,11,5,37,3,868,5,7,8
1,25,11,6,10,3,603,5,7,1
1,25,11,7,35,3,1451,4,1,2
1,25,11,8,46,2,550,7,8,6
1,25,12,1,31,2,494,1,2,4
1,25,12,2,8,1,574,1,7,5
1,25,12,3,47,1,1020,8,6,7
1,25,12,4,18,1,690,8,4,2
1,25,12,5,41,1,1416,8,5,7
1,25,12,6,6,1,1105,7,3,1
1,25,12,7,27,1,550,2,1,3
1,25,12,8,22,2,803,6,8,2
1,26,1,1,18,1,1100,8,4,2
1,26,1,2,29,3,1711,3,1,2
1,26,1,3,10,3,1298,5,7,1
1,26,1,4,44,3,615,6,8,7
1,26,1,5,24,1,639,8,6,2
1,26,1,6,4,2,802,3,7,1
1,26,1,7,37,3,1575,5,7,8
1,26,1,8,32,1,1151,1,4,2
1,26,2,1,21,2,1468,6,2,8
1,26,2,2,3,3,804,3,1,7
1,26,2,3,43,2,593,6,7,8
1,26,2,4,34,3,778,2,4,1
1,26,2,5,7,3,895,1,5,7
1,26,2,6,13,3,710,2,4,8
1,26,2,7,40,2,1972,7,8,5
1,26,2,8,26,1,1194,1,3,2
1,26,3,1,22,1,1231,6,8,2
1,26,3,2,16,1,936,4,8,2
1,26,3,3,41,3,896,8,5,7
1,26,3,4,48,2,612,8,7,6
1,26,3,5,31,1,646,1,2,4
1,26,3,6,28,1,1477,2,3,1
1,26,3,7,1,3,675,1,3,7
1,26,3,8,11,2,852,7,1,5
1,26,4,1,46,2,1270,7,8,6
1,26,4,2,2,2,606,1,7,3
1,26,4,3,20,1,1332,2,8,6
1,26,4,4,25,2,953,1,2,3
1,26,4,5,12,3,993,7,5,1
1,26,4,6,42,1,1686,8,7,5
1,26,4,7,17,1,1682,8,2,4
1,26,4,8,33,2,721,2,1,4
1,26,5,1,47,2,1031,8,6,7
1,26,5,2,19,2,1157,2,6,8
1,26,5,3,36,3,852,4,2,1
1,26,5,4,5,2,1238,7,1,3
1,26,5,5,38,2,859,5,8,7
1,26,5,6,14,2,1073,2,8,4
1,26,5,7,8,2,766,1,7,5
1,26,5,8,30,1,1104,3,2,1
1,26,6,1,23,2,1172,8,2,6
1,26,6,2,45,1,494,7,6,8
1,26,6,3,6,1,728,7,3,1
1,26,6,4,15,3,609,4,2,8
1,26,6,5,27,1,586,2,1,3
1,26,6,6,39,1,786,7,5,8
1,26,6,7,35,2,706,4,1,2
1,26,6,8,9,3,637,5,1,7
1,26,7,1,42,2,1290,8,7,5
1,26,7,2,46,1,952,7,8,6
1,26,7,3,11,2,588,7,1,5
1,26,7,4,24,3,679,8,6,2
1,26,7,5,25,2,542,1,2,3
1,26,7,6,2,2,561,1,7,3
1,26,7,7,17,1,1371,8,2,4
1,26,7,8,36,2,1326,4,2,1
1,26,8,1,4,2,1124,3,7,1
1,26,8,2,37,1,1198,5,7,8
1,26,8,3,12,3,577,7,5,1
1,26,8,4,43,2,590,6,7,8
1,26,8,5,21,2,482,6,2,8
1,26,8,6,34,3,505,2,4,1
1,26,8,7,30,2,792,3,2,1
1,26,8,8,16,3,714,4,8,2
1,26,9,1,32,2,1029,1,4,2
1,26,9,2,9,2,449,5,1,7
1,26,9,3,23,3,993,8,2,6
1,26,9,4,28,2,781,2,3,1
1,26,9,5,6,1,471,7,3,1
1,26,9,6,44,3,823,6,8,7
1,26,9,7,15,3,706,4,2,8
1,26,9,8,38,1,752,5,8,7
1,26,10,1,19,1,532,2,6,8
1,26,10,2,18,3,833,8,4,2
1,26,10,3,33,2,589,2,1,4
1,26,10,4,1,3,664,1,3,7
1,26,10,5,45,1,690,7,6,8
1,26,10,6,40,3,1016,7,8,5
1,26,10,7,10,3,617,5,7,1
1,26,10,8,27,3,1084,2,1,3
1,26,11,1,31,1,601,1,2,4
1,26,11,2,47,1,669,8,6,7
1,26,11,3,3,2,477,3,1,7
1,26,11,4,41,3,510,8,5,7
1,26,11,5,7,1,438,1,5,7
1,26,11,6,13,3,623,2,4,8
1,26,11,7,26,2,619,1,3,2
1,26,11,8,22,1,623,6,8,2
1,26,12,1,48,2,714,8,7,6
1,26,12,2,39,1,1018,7,5,8
1,26,12,3,35,2,397,4,1,2
1,26,12,4,5,1,809,7,1,3
1,26,12,5,14,1,949,2,8,4
1,26,12,6,29,1,645,3,1,2
1,26,12,7,8,3,463,1,7,5
1,26,12,8,20,3,1066,2,8,6
1,32,1,1,15,1,5640,4,2,8
1,32,1,2,30,2,1274,3,2,1
1,32,1,3,40,2,1629,7,8,5
1,32,1,4,3,3,1062,3,1,7
1,32,1,5,46,1,1131,7,8,6
1,32,1,6,20,3,507,2,8,6
1,32,1,7,32,2,153,1,4,2
1,32,1,8,8,1,130,1,7,5
1,32,2,1,39,3,961,7,5,8
1,32,2,2,4,2,634,3,7,1
1,32,2,3,33,2,553,2,1,4
1,32,2,4,14,2,463,2,8,4
1,32,2,5,28,2,724,2,3,1
1,32,2,6,19,3,823,2,6,8
1,32,2,7,48,2,537,8,7,6
1,32,2,8,12,1,772,7,5,1
1,32,3,1,36,2,483,4,2,1
1,32,3,2,45,3,567,7,6,8
1,32,3,3,37,2,1100,5,7,8
1,32,3,4,24,1,641,8,6,2
1,32,3,5,10,3,2055,5,7,1
1,32,3,6,29,1,1188,3,1,2
1,32,3,7,17,1,964,8,2,4
1,32,3,8,1,3,806,1,3,7
1,32,4,1,47,2,1734,8,6,7
1,32,4,2,6,1,601,7,3,1
1,32,4,3,18,1,733,8,4,2
1,32,4,4,42,2,775,8,7,5
1,32,4,5,26,3,1699,1,3,2
1,32,4,6,7,2,1105,1,5,7
1,32,4,7,34,2,1091,2,4,1
1,32,4,8,23,2,679,8,2,6
1,32,5,1,43,2,980,6,7,8
1,32,5,2,21,3,1315,6,2,8
1,32,5,3,27,2,551,2,1,3
1,32,5,4,31,1,761,1,2,4
1,32,5,5,5,1,629,7,1,3
1,32,5,6,41,2,1221,8,5,7
1,32,5,7,9,2,990,5,1,7
1,32,5,8,13,3,607,2,4,8
1,32,6,1,38,2,463,5,8,7
1,32,6,2,25,2,716,1,2,3
1,32,6,3,11,3,736,7,1,5
1,32,6,4,35,2,406,4,1,2
1,32,6,5,2,2,435,1,7,3
1,32,6,6,44,3,642,6,8,7
1,32,6,7,22,2,1069,6,8,2
1,32,6,8,16,2,518,4,8,2
1,32,7,1,41,3,633,8,5,7
1,32,7,2,46,1,538,7,8,6
1,32,7,3,36,3,580,4,2,1
1,32,7,4,5,1,487,7,1,3
1,32,7,5,28,1,601,2,3,1
1,32,7,6,12,1,558,7,5,1
1,32,7,7,13,3,674,2,4,8
1,32,7,8,23,2,921,8,2,6
1,32,8,1,33,2,813,2,1,4
1,32,8,2,26,3,336,1,3,2
1,32,8,3,20,2,477,2,8,6
1,32,8,4,47,3,569,8,6,7
1,32,8,5,39,3,488,7,5,8
1,32,8,6,3,3,541,3,1,7
1,32,8,7,16,2,404,4,8,2
1,32,8,8,8,2,453,1,7,5
1,32,9,1,42,2,430,8,7,5
1,32,9,2,43,3,551,6,7,8
1,32,9,3,11,1,997,7,1,5
1,32,9,4,31,3,600,1,2,4
1,32,9,5,25,3,557,1,2,3
1,32,9,6,24,1,1071,8,6,2
1,32,9,7,14,2,332,2,8,4
1,32,9,8,1,3,444,1,3,7
1,32,10,1,15,3,498,4,2,8
1,32,10,2,29,2,175,3,1,2
1,32,10,3,38,3,123,5,8,7
1,32,10,4,19,1,134,2,6,8
1,32,10,5,45,2,120,7,6,8
1,32,10,6,6,1,178,7,3,1
1,32,10,7,32,3,51,1,4,2
1,32,10,8,7,3,416,1,5,7
1,32,11,1,17,1,392,8,2,4
1,32,11,2,44,3,1828,6,8,7
1,32,11,3,10,2,669,5,7,1
1,32,11,4,22,3,854,6,8,2
1,32,11,5,27,1,3211,2,1,3
1,32,11,6,2,2,636,1,7,3
1,32,11,7,40,2,647,7,8,5
1,32,11,8,34,2,1232,2,4,1
1,32,12,1,37,2,632,5,7,8
1,32,12,2,9,3,1114,5,1,7
1,32,12,3,30,1,698,3,2,1
1,32,12,4,4,2,479,3,7,1
1,32,12,5,48,2,393,8,7,6
1,32,12,6,21,1,493,6,2,8
1,32,12,7,18,1,664,8,4,2
1,32,12,8,35,2,701,4,1,2
1,33,1,1,36,3,1347,4,2,1
1,33,1,2,12,3,898,7,5,1
1,33,1,3,18,1,543,8,4,2
1,33,1,4,42,1,1903,8,7,5
1,33,1,5,27,1,1363,2,1,3
1,33,1,6,5,1,1275,7,1,3
1,33,1,7,43,2,776,6,7,8
1,33,1,8,23,2,1290,8,2,6
1,33,2,1,33,3,1192,2,1,4
1,33,2,2,41,3,1076,8,5,7
1,33,2,3,3,3,555,3,1,7
1,33,2,4,46,3,2228,7,8,6
1,33,2,5,11,1,703,7,1,5
1,33,2,6,16,2,1108,4,8,2
1,33,2,7,22,3,1203,6,8,2
1,33,2,8,25,1,1623,1,2,3
1,33,3,1,21,3,1355,6,2,8
1,33,3,2,40,1,602,7,8,5
1,33,3,3,26,2,820,1,3,2
1,33,3,4,17,1,666,8,2,4
1,33,3,5,32,1,1086,1,4,2
1,33,3,6,1,3,1089,1,3,7
1,33,3,7,10,3,898,5,7,1
1,33,3,8,47,3,821,8,6,7
1,33,4,1,6,1,576,7,3,1
1,33,4,2,35,2,696,4,1,2
1,33,4,3,19,3,522,2,6,8
1,33,4,4,38,2,1340,5,8,7
1,33,4,5,48,2,512,8,7,6
1,33,4,6,13,3,538,2,4,8
1,33,4,7,30,2,1162,3,2,1
1,33,4,8,8,1,939,1,7,5
1,33,5,1,45,1,932,7,6,8
1,33,5,2,4,2,520,3,7,1
1,33,5,3,34,3,789,2,4,1
1,33,5,4,29,3,585,3,1,2
1,33,5,5,39,3,523,7,5,8
1,33,5,6,15,3,470,4,2,8
1,33,5,7,7,1,1005,1,5,7
1,33,5,8,20,2,630,2,8,6
1,33,6,1,37,3,467,5,7,8
1,33,6,2,14,2,381,2,8,4
1,33,6,3,44,3,1312,6,8,7
1,33,6,4,31,1,743,1,2,4
1,33,6,5,28,2,747,2,3,1
1,33,6,6,9,3,647,5,1,7
1,33,6,7,2,2,590,1,7,3
1,33,6,8,24,3,532,8,6,2
1,33,7,1,33,2,479,2,1,4
1,33,7,2,25,2,854,1,2,3
1,33,7,3,4,2,475,3,7,1
1,33,7,4,15,1,1516,4,2,8
1,33,7,5,43,2,611,6,7,8
1,33,7,6,19,1,565,2,6,8
1,33,7,7,10,3,712,5,7,1
1,33,7,8,41,1,640,8,5,7
1,33,8,1,20,2,796,2,8,6
1,33,8,2,47,3,1048,8,6,7
1,33,8,3,2,1,644,1,7,3
1,33,8,4,8,3,1236,1,7,5
1,33,8,5,32,1,749,1,4,2
1,33,8,6,17,3,834,8,2,4
1,33,8,7,37,3,902,5,7,8
1,33,8,8,30,3,688,3,2,1
1,33,9,1,42,3,630,8,7,5
1,33,9,2,1,3,475,1,3,7
1,33,9,3,24,1,1339,8,6,2
1,33,9,4,14,3,1049,2,8,4
1,33,9,5,45,2,1214,7,6,8
1,33,9,6,26,1,878,1,3,2
1,33,9,7,11,2,694,7,1,5
1,33,9,8,31,1,783,1,2,4
1,33,10,1,9,2,556,5,1,7
1,33,10,2,27,1,989,2,1,3
1,33,10,3,46,2,673,7,8,6
1,33,10,4,18,1,848,8,4,2
1,33,10,5,6,3,1464,7,3,1
1,33,10,6,38,3,672,5,8,7
1,33,10,7,34,2,1367,2,4,1
1,33,10,8,22,1,787,6,8,2
1,33,11,1,3,3,1130,3,1,7
1,33,11,2,39,3,706,7,5,8
1,33,11,3,13,3,425,2,4,8
1,33,11,4,29,3,629,3,1,2
1,33,11,5,35,3,643,4,1,2
1,33,11,6,12,3,567,7,5,1
1,33,11,7,44,3,541,6,8,7
1,33,11,8,23,2,568,8,2,6
1,33,12,1,28,3,615,2,3,1
1,33,12,2,21,2,675,6,2,8
1,33,12,3,16,3,662,4,8,2
1,33,12,4,5,3,828,7,1,3
1,33,12,5,36,3,788,4,2,1
1,33,12,6,48,2,623,8,7,6
1,33,12,7,7,1,909,1,5,7
1,33,12,8,40,2,920,7,8,5
1,37,1,1,26,3,3060,1,3,2
1,37,1,2,23,2,1453,8,2,6
1,37,1,3,9,2,1288,5,1,7
1,37,1,4,1,3,1807,1,3,7
1,37,1,5,17,1,2197,8,2,4
1,37,1,6,40,2,1522,7,8,5
1,37,1,7,43,2,1458,6,7,8
1,37,1,8,35,2,1107,4,1,2
1,37,2,1,18,1,1994,8,4,2
1,37,2,2,41,1,1110,8,5,7
1,37,2,3,3,3,1739,3,1,7
1,37,2,4,24,3,1349,8,6,2
1,37,2,5,30,2,1269,3,2,1
1,37,2,6,10,3,1172,5,7,1
1,37,2,7,48,2,957,8,7,6
1,37,2,8,32,1,943,1,4,2
1,37,3,1,21,2,1321,6,2,8
1,37,3,2,13,1,2665,2,4,8
1,37,3,3,12,3,1495,7,5,1
1,37,3,4,45,1,1413,7,6,8
1,37,3,5,39,1,1286,7,5,8
1,37,3,6,34,3,1622,2,4,1
1,37,3,7,29,3,1746,3,1,2
1,37,3,8,2,1,1975,1,7,3
1,37,4,1,37,1,746,5,7,8
1,37,4,2,14,2,1421,2,8,4
1,37,4,3,22,3,1968,6,8,2
1,37,4,4,27,2,1735,2,1,3
1,37,4,5,44,3,1801,6,8,7
1,37,4,6,7,1,1152,1,5,7
1,37,4,7,31,2,1235,1,2,4
1,37,4,8,6,1,2209,7,3,1
1,37,5,1,42,1,1572,8,7,5
1,37,5,2,36,3,831,4,2,1
1,37,5,3,4,2,938,3,7,1
1,37,5,4,16,2,807,4,8,2
1,37,5,5,11,1,1620,7,1,5
1,37,5,6,25,2,707,1,2,3
1,37,5,7,47,3,756,8,6,7
1,37,5,8,19,1,895,2,6,8
1,37,6,1,8,1,644,1,7,5
1,37,6,2,20,1,788,2,8,6
1,37,6,3,46,2,1288,7,8,6
1,37,6,4,28,1,716,2,3,1
1,37,6,5,38,2,764,5,8,7
1,37,6,6,33,2,714,2,1,4
1,37,6,7,15,2,1451,4,2,8
1,37,6,8,5,1,1132,7,1,3
1,37,7,1,36,3,1076,4,2,1
1,37,7,2,44,2,1356,6,8,7
1,37,7,3,11,2,1519,7,1,5
1,37,7,4,41,1,840,8,5,7
1,37,7,5,26,3,1577,1,3,2
1,37,7,6,18,2,1554,8,4,2
1,37,7,7,24,3,698,8,6,2
1,37,7,8,6,1,947,7,3,1
1,37,8,1,38,1,1142,5,8,7
1,37,8,2,48,2,940,8,7,6
1,37,8,3,33,2,738,2,1,4
1,37,8,4,4,2,873,3,7,1
1,37,8,5,23,2,745,8,2,6
1,37,8,6,10,2,1527,5,7,1
1,37,8,7,14,2,740,2,8,4
1,37,8,8,29,3,1733,3,1,2
1,37,9,1,9,2,1231,5,1,7
1,37,9,2,28,3,1559,2,3,1
1,37,9,3,2,1,1057,1,7,3
1,37,9,4,47,3,981,8,6,7
1,37,9,5,40,2,755,7,8,5
1,37,9,6,35,2,708,4,1,2
1,37,9,7,13,3,621,2,4,8
1,37,9,8,19,1,603,2,6,8
1,37,10,1,16,2,687,4,8,2
1,37,10,2,31,1,802,1,2,4
1,37,10,3,1,3,582,1,3,7
1,37,10,4,7,1,1093,1,5,7
1,37,10,5,25,2,744,1,2,3
1,37,10,6,39,3,626,7,5,8
1,37,10,7,22,3,1967,6,8,2
1,37,10,8,45,1,799,7,6,8
1,37,11,1,3,3,648,3,1,7
1,37,11,2,42,1,664,8,7,5
1,37,11,3,46,2,691,7,8,6
1,37,11,4,20,1,666,2,8,6
1,37,11,5,17,2,1992,8,2,4
1,37,11,6,27,2,911,2,1,3
1,37,11,7,8,1,744,1,7,5
1,37,11,8,34,3,631,2,4,1
1,37,12,1,12,3,565,7,5,1
1,37,12,2,21,2,633,6,2,8
1,37,12,3,37,1,568,5,7,8
1,37,12,4,43,2,966,6,7,8
1,37,12,5,32,1,658,1,4,2
1,37,12,6,5,2,549,7,1,3
1,37,12,7,30,3,748,3,2,1
1,37,12,8,15,2,649,4,2,8
1,38,1,1,9,3,3148,5,1,7
1,38,1,2,46,1,1046,7,8,6
1,38,1,3,26,1,1231,1,3,2
1,38,1,4,31,1,800,1,2,4
1,38,1,5,16,1,2008,4,8,2
1,38,1,6,1,3,568,1,3,7
1,38,1,7,22,3,1049,6,8,2
1,38,1,8,41,1,1632,8,5,7
1,38,2,1,6,1,562,7,3,1
1,38,2,2,35,1,601,4,1,2
1,38,2,3,7,1,979,1,5,7
1,38,2,4,14,2,844,2,8,4
1,38,2,5,24,3,643,8,6,2
1,38,2,6,40,3,1383,7,8,5
1,38,2,7,48,1,579,8,7,6
1,38,2,8,27,1,739,2,1,3
1,38,3,1,5,1,469,7,1,3
1,38,3,2,8,1,765,1,7,5
1,38,3,3,32,1,1200,1,4,2
1,38,3,4,44,2,2644,6,8,7
1,38,3,5,19,1,532,2,6,8
1,38,3,6,39,2,1518,7,5,8
1,38,3,7,29,1,814,3,1,2
1,38,3,8,13,3,931,2,4,8
1,38,4,1,11,1,859,7,1,5
1,38,4,2,18,1,906,8,4,2
1,38,4,3,4,3,1372,3,7,1
1,38,4,4,28,1,955,2,3,1
1,38,4,5,43,3,878,6,7,8
1,38,4,6,38,2,897,5,8,7
1,38,4,7,20,1,850,2,8,6
1,38,4,8,34,3,737,2,4,1
1,38,5,1,45,3,1275,7,6,8
1,38,5,2,10,2,653,5,7,1
1,38,5,3,33,1,838,2,1,4
1,38,5,4,37,3,814,5,7,8
1,38,5,5,25,2,526,1,2,3
1,38,5,6,23,2,380,8,2,6
1,38,5,7,15,2,398,4,2,8
1,38,5,8,3,3,1239,3,1,7
1,38,6,1,36,2,428,4,2,1
1,38,6,2,30,2,342,3,2,1
1,38,6,3,21,2,408,6,2,8
1,38,6,4,47,3,1334,8,6,7
1,38,6,5,2,2,584,1,7,3
1,38,6,6,12,1,667,7,5,1
1,38,6,7,42,2,428,8,7,5
1,38,6,8,17,1,556,8,2,4
1,38,7,1,29,3,622,3,1,2
1,38,7,2,6,3,816,7,3,1
1,38,7,3,9,3,707,5,1,7
1,38,7,4,14,2,492,2,8,4
1,38,7,5,35,1,719,4,1,2
1,38,7,6,38,2,477,5,8,7
1,38,7,7,43,2,895,6,7,8
1,38,7,8,22,2,715,6,8,2
1,38,8,1,27,1,584,2,1,3
1,38,8,2,46,2,467,7,8,6
1,38,8,3,33,1,825,2,1,4
1,38,8,4,18,3,503,8,4,2
1,38,8,5,4,2,497,3,7,1
1,38,8,6,21,2,517,6,2,8
1,38,8,7,10,2,530,5,7,1
1,38,8,8,37,3,541,5,7,8
1,38,9,1,48,1,820,8,7,6
1,38,9,2,7,2,699,1,5,7
1,38,9,3,23,2,746,8,2,6
1,38,9,4,34,1,504,2,4,1
1,38,9,5,41,1,1189,8,5,7
1,38,9,6,17,2,520,8,2,4
1,38,9,7,2,2,643,1,7,3
1,38,9,8,28,1,701,2,3,1
1,38,10,1,15,2,354,4,2,8
1,38,10,2,32,3,431,1,4,2
1,38,10,3,44,2,927,6,8,7
1,38,10,4,25,2,493,1,2,3
1,38,10,5,1,3,960,1,3,7
1,38,10,6,40,2,453,7,8,5
1,38,10,7,11,2,1038,7,1,5
1,38,10,8,19,1,531,2,6,8
1,38,11,1,45,3,507,7,6,8
1,38,11,2,26,3,489,1,3,2
1,38,11,3,39,3,527,7,5,8
1,38,11,4,31,2,414,1,2,4
1,38,11,5,20,1,436,2,8,6
1,38,11,6,13,1,374,2,4,8
1,38,11,7,8,1,367,1,7,5
1,38,11,8,3,3,1141,3,1,7
1,38,12,1,24,3,472,8,6,2
1,38,12,2,16,3,636,4,8,2
1,38,12,3,36,2,502,4,2,1
1,38,12,4,5,1,1007,7,1,3
1,38,12,5,12,1,572,7,5,1
1,38,12,6,30,2,494,3,2,1
1,38,12,7,42,2,548,8,7,5
1,38,12,8,47,3,534,8,6,7
1,39,1,1,47,3,3580,8,6,7
1,39,1,2,12,3,2197,7,5,1
1,39,1,3,3,2,2088,3,1,7
1,39,1,4,33,1,1530,2,1,4
1,39,1,5,16,2,2032,4,8,2
1,39,1,6,24,3,1459,8,6,2
1,39,1,7,41,1,1611,8,5,7
1,39,1,8,29,2,1847,3,1,2
1,39,2,1,36,3,1061,4,2,1
1,39,2,2,43,3,1327,6,7,8
1,39,2,3,1,3,1298,1,3,7
1,39,2,4,17,1,1462,8,2,4
1,39,2,5,28,1,2091,2,3,1
1,39,2,6,23,1,1051,8,2,6
1,39,2,7,7,3,999,1,5,7
1,39,2,8,38,2,1533,5,8,7
1,39,3,1,6,1,967,7,3,1
1,39,3,2,27,3,1555,2,1,3
1,39,3,3,42,1,1385,8,7,5
1,39,3,4,11,1,1421,7,1,5
1,39,3,5,20,2,976,2,8,6
1,39,3,6,14,2,921,2,8,4
1,39,3,7,48,1,1040,8,7,6
1,39,3,8,35,2,1294,4,1,2
1,39,4,1,45,3,1526,7,6,8
1,39,4,2,40,2,1336,7,8,5
1,39,4,3,26,3,1338,1,3,2
1,39,4,4,32,1,1282,1,4,2
1,39,4,5,10,2,1039,5,7,1
1,39,4,6,21,2,1140,6,2,8
1,39,4,7,2,2,919,1,7,3
1,39,4,8,15,3,890,4,2,8
1,39,5,1,9,3,842,5,1,7
1,39,5,2,31,2,941,1,2,4
1,39,5,3,13,3,788,2,4,8
1,39,5,4,22,2,766,6,8,2
1,39,5,5,4,2,770,3,7,1
1,39,5,6,39,3,885,7,5,8
1,39,5,7,46,2,1236,7,8,6
1,39,5,8,25,2,1039,1,2,3
1,39,6,1,44,3,1058,6,8,7
1,39,6,2,8,2,880,1,7,5
1,39,6,3,5,2,1096,7,1,3
1,39,6,4,34,3,940,2,4,1
1,39,6,5,37,3,1039,5,7,8
1,39,6,6,18,3,976,8,4,2
1,39,6,7,30,3,952,3,2,1
1,39,6,8,19,2,1034,2,6,8
1,39,7,1,43,1,1638,6,7,8
1,39,7,2,39,3,1135,7,5,8
1,39,7,3,13,3,1020,2,4,8
1,39,7,4,7,1,1550,1,5,7
1,39,7,5,36,3,1629,4,2,1
1,39,7,6,25,2,1634,1,2,3
1,39,7,7,24,3,1060,8,6,2
1,39,7,8,6,3,981,7,3,1
1,39,8,1,48,3,1559,8,7,6
1,39,8,2,19,1,1172,2,6,8
1,39,8,3,35,3,922,4,1,2
1,39,8,4,10,3,770,5,7,1
1,39,8,5,14,2,1367,2,8,4
1,39,8,6,4,3,1363,3,7,1
1,39,8,7,37,3,1144,5,7,8
1,39,8,8,30,3,1094,3,2,1
1,39,9,1,44,3,1041,6,8,7
1,39,9,2,40,2,1683,7,8,5
1,39,9,3,21,2,995,6,2,8
1,39,9,4,17,1,3071,8,2,4
1,39,9,5,26,3,1900,1,3,2
1,39,9,6,3,3,929,3,1,7
1,39,9,7,32,3,2541,1,4,2
1,39,9,8,8,1,1497,1,7,5
1,39,10,1,18,1,1466,8,4,2
1,39,10,2,28,3,2221,2,3,1
1,39,10,3,5,1,1138,7,1,3
1,39,10,4,12,3,1361,7,5,1
1,39,10,5,20,2,1317,2,8,6
1,39,10,6,33,3,1926,2,1,4
1,39,10,7,41,1,1926,8,5,7
1,39,10,8,47,1,1400,8,6,7
1,39,11,1,29,3,1053,3,1,2
1,39,11,2,22,3,944,6,8,2
1,39,11,3,45,3,1494,7,6,8
1,39,11,4,34,2,1941,2,4,1
1,39,11,5,38,2,1197,5,8,7
1,39,11,6,9,3,999,5,1,7
1,39,11,7,16,3,783,4,8,2
1,39,11,8,1,3,946,1,3,7
1,39,12,1,23,3,826,8,2,6
1,39,12,2,2,2,892,1,7,3
1,39,12,3,27,1,1113,2,1,3
1,39,12,4,15,3,765,4,2,8
1,39,12,5,46,1,817,7,8,6
1,39,12,6,31,2,762,1,2,4
1,39,12,7,11,1,766,7,1,5
1,39,12,8,42,1,1113,8,7,5
1,40,1,1,18,2,2428,8,4,2
1,40,1,2,9,3,1943,5,1,7
1,40,1,3,34,1,2179,2,4,1
1,40,1,4,5,1,1040,7,1,3
1,40,1,5,21,3,1423,6,2,8
1,40,1,6,42,2,1539,8,7,5
1,40,1,7,45,1,945,7,6,8
1,40,1,8,26,2,1874,1,3,2
1,40,2,1,48,2,814,8,7,6
1,40,2,2,37,3,1604,5,7,8
1,40,2,3,25,2,980,1,2,3
1,40,2,4,4,2,676,3,7,1
1,40,2,5,33,2,1736,2,1,4
1,40,2,6,15,3,739,4,2,8
1,40,2,7,24,3,1157,8,6,2
1,40,2,8,12,3,893,7,5,1
1,40,3,1,36,3,2337,4,2,1
1,40,3,2,38,2,1031,5,8,7
1,40,3,3,20,1,1802,2,8,6
1,40,3,4,10,3,1061,5,7,1
1,40,3,5,13,3,1176,2,4,8
1,40,3,6,3,3,888,3,1,7
1,40,3,7,29,3,972,3,1,2
1,40,3,8,46,1,865,7,8,6
1,40,4,1,41,2,5765,8,5,7
1,40,4,2,14,2,715,2,8,4
1,40,4,3,19,2,905,2,6,8
1,40,4,4,8,2,571,1,7,5
1,40,4,5,44,2,690,6,8,7
1,40,4,6,28,1,1277,2,3,1
1,40,4,7,2,2,1093,1,7,3
1,40,4,8,35,2,1456,4,1,2
1,40,5,1,7,1,1153,1,5,7
1,40,5,2,40,1,966,7,8,5
1,40,5,3,16,2,1613,4,8,2
1,40,5,4,30,2,969,3,2,1
1,40,5,5,23,1,641,8,2,6
1,40,5,6,31,2,1106,1,2,4
1,40,5,7,47,2,1069,8,6,7
1,40,5,8,1,3,698,1,3,7
1,40,6,1,17,1,605,8,2,4
1,40,6,2,27,1,586,2,1,3
1,40,6,3,43,2,683,6,7,8
1,40,6,4,22,1,970,6,8,2
1,40,6,5,6,1,528,7,3,1
1,40,6,6,32,1,703,1,4,2
1,40,6,7,11,3,1936,7,1,5
1,40,6,8,39,3,927,7,5,8
1,40,7,1,14,2,698,2,8,4
1,40,7,2,47,3,621,8,6,7
1,40,7,3,42,2,504,8,7,5
1,40,7,4,26,3,865,1,3,2
1,40,7,5,4,1,609,3,7,1
1,40,7,6,23,2,468,8,2,6
1,40,7,7,12,3,804,7,5,1
1,40,7,8,35,3,752,4,1,2
1,40,8,1,11,1,3216,7,1,5
1,40,8,2,39,1,721,7,5,8
1,40,8,3,31,1,3313,1,2,4
1,40,8,4,27,3,2133,2,1,3
1,40,8,5,17,1,794,8,2,4
1,40,8,6,2,2,590,1,7,3
1,40,8,7,44,3,555,6,8,7
1,40,8,8,22,3,4593,6,8,2
1,40,9,1,43,2,586,6,7,8
1,40,9,2,7,3,503,1,5,7
1,40,9,3,15,1,639,4,2,8
1,40,9,4,29,2,1213,3,1,2
1,40,9,5,34,2,791,2,4,1
1,40,9,6,40,2,555,7,8,5
1,40,9,7,24,1,3171,8,6,2
1,40,9,8,5,1,696,7,1,3
1,40,10,1,10,1,1968,5,7,1
1,40,10,2,38,2,1348,5,8,7
1,40,10,3,36,3,613,4,2,1
1,40,10,4,48,1,727,8,7,6
1,40,10,5,16,2,1551,4,8,2
1,40,10,6,3,3,732,3,1,7
1,40,10,7,25,2,994,1,2,3
1,40,10,8,20,2,608,2,8,6
1,40,11,1,30,3,1400,3,2,1
1,40,11,2,21,2,575,6,2,8
1,40,11,3,9,1,940,5,1,7
1,40,11,4,1,2,772,1,3,7
1,40,11,5,45,3,712,7,6,8
1,40,11,6,32,3,1447,1,4,2
1,40,11,7,41,1,919,8,5,7
1,40,11,8,18,1,1020,8,4,2
1,40,12,1,19,3,924,2,6,8
1,40,12,2,6,1,474,7,3,1
1,40,12,3,37,2,817,5,7,8
1,40,12,4,28,1,748,2,3,1
1,40,12,5,33,1,543,2,1,4
1,40,12,6,46,1,436,7,8,6
1,40,12,7,8,2,572,1,7,5
1,40,12,8,13,3,1546,2,4,8
1,41,1,1,18,1,1893,8,4,2
1,41,1,2,8,2,2076,1,7,5
1,41,1,3,45,1,1530,7,6,8
1,41,1,4,32,2,1225,1,4,2
1,41,1,5,1,3,475,1,3,7
1,41,1,6,28,2,473,2,3,1
1,41,1,7,19,3,648,2,6,8
1,41,1,8,38,2,888,5,8,7
1,41,2,1,34,2,571,2,4,1
1,41,2,2,42,2,802,8,7,5
1,41,2,3,6,1,565,7,3,1
1,41,2,4,23,3,541,8,2,6
1,41,2,5,29,3,649,3,1,2
1,41,2,6,11,3,832,7,1,5
1,41,2,7,17,1,637,8,2,4
1,41,2,8,43,3,934,6,7,8
1,41,3,1,37,2,363,5,7,8
1,41,3,2,3,3,774,3,1,7
1,41,3,3,25,2,509,1,2,3
1,41,3,4,10,2,438,5,7,1
1,41,3,5,13,3,345,2,4,8
1,41,3,6,24,1,974,8,6,2
1,41,3,7,36,2,709,4,2,1
1,41,3,8,46,2,531,7,8,6
1,41,4,1,39,3,851,7,5,8
1,41,4,2,5,1,506,7,1,3
1,41,4,3,22,2,608,6,8,2
1,41,4,4,31,3,570,1,2,4
1,41,4,5,44,2,373,6,8,7
1,41,4,6,16,3,497,4,8,2
1,41,4,7,30,2,798,3,2,1
1,41,4,8,9,3,552,5,1,7
1,41,5,1,27,3,508,2,1,3
1,41,5,2,14,2,486,2,8,4
1,41,5,3,40,1,549,7,8,5
1,41,5,4,33,3,504,2,1,4
1,41,5,5,21,3,613,6,2,8
1,41,5,6,7,2,903,1,5,7
1,41,5,7,47,3,186,8,6,7
1,41,5,8,4,2,457,3,7,1
1,41,6,1,35,3,585,4,1,2
1,41,6,2,20,2,460,2,8,6
1,41,6,3,15,3,342,4,2,8
1,41,6,4,2,2,491,1,7,3
1,41,6,5,26,3,685,1,3,2
1,41,6,6,48,1,901,8,7,6
1,41,6,7,41,1,878,8,5,7
1,41,6,8,12,3,646,7,5,1
1,41,7,1,31,2,783,1,2,4
1,41,7,2,37,3,814,5,7,8
1,41,7,3,43,2,1170,6,7,8
1,41,7,4,17,1,1095,8,2,4
1,41,7,5,29,3,509,3,1,2
1,41,7,6,4,2,781,3,7,1
1,41,7,7,19,3,469,2,6,8
1,41,7,8,9,2,638,5,1,7
1,41,8,1,27,1,856,2,1,3
1,41,8,2,8,2,576,1,7,5
1,41,8,3,35,3,592,4,1,2
1,41,8,4,38,2,443,5,8,7
1,41,8,5,2,2,600,1,7,3
1,41,8,6,20,2,486,2,8,6
1,41,8,7,15,3,483,4,2,8
1,41,8,8,45,1,757,7,6,8
1,41,9,1,7,2,609,1,5,7
1,41,9,2,33,1,805,2,1,4
1,41,9,3,40,2,746,7,8,5
1,41,9,4,16,2,967,4,8,2
1,41,9,5,21,2,1036,6,2,8
1,41,9,6,28,1,1205,2,3,1
1,41,9,7,46,1,719,7,8,6
1,41,9,8,1,3,451,1,3,7
1,41,10,1,10,2,522,5,7,1
1,41,10,2,25,2,568,1,2,3
1,41,10,3,34,1,527,2,4,1
1,41,10,4,39,3,373,7,5,8
1,41,10,5,24,3,373,8,6,2
1,41,10,6,6,1,477,7,3,1
1,41,10,7,13,3,319,2,4,8
1,41,10,8,47,3,792,8,6,7
1,41,11,1,3,3,440,3,1,7
1,41,11,2,48,3,1448,8,7,6
1,41,11,3,41,1,781,8,5,7
1,41,11,4,18,3,897,8,4,2
1,41,11,5,22,2,2272,6,8,2
1,41,11,6,32,3,425,1,4,2
1,41,11,7,26,3,333,1,3,2
1,41,11,8,12,1,484,7,5,1
1,41,12,1,14,2,877,2,8,4
1,41,12,2,44,3,477,6,8,7
1,41,12,3,30,2,487,3,2,1
1,41,12,4,5,1,491,7,1,3
1,41,12,5,23,1,501,8,2,6
1,41,12,6,36,3,529,4,2,1
1,41,12,7,11,3,494,7,1,5
1,41,12,8,42,1,393,8,7,5
1,42,1,1,4,3,1537,3,7,1
1,42,1,2,47,3,1599,8,6,7
1,42,1,3,16,2,1964,4,8,2
1,42,1,4,12,1,1013,7,5,1
1,42,1,5,28,1,909,2,3,1
1,42,1,6,36,2,788,4,2,1
1,42,1,7,39,3,1177,7,5,8
1,42,1,8,24,3,898,8,6,2
1,42,2,1,27,3,1249,2,1,3
1,42,2,2,20,2,608,2,8,6
1,42,2,3,31,3,659,1,2,4
1,42,2,4,9,2,1025,5,1,7
1,42,2,5,15,2,677,4,2,8
1,42,2,6,3,3,879,3,1,7
1,42,2,7,45,3,1207,7,6,8
1,42,2,8,38,2,478,5,8,7
1,42,3,1,22,2,612,6,8,2
1,42,3,2,32,2,770,1,4,2
1,42,3,3,18,3,1523,8,4,2
1,42,3,4,37,3,772,5,7,8
1,42,3,5,44,2,549,6,8,7
1,42,3,6,1,3,988,1,3,7
1,42,3,7,10,2,1412,5,7,1
1,42,3,8,30,2,835,3,2,1
1,42,4,1,7,3,3140,1,5,7
1,42,4,2,42,2,785,8,7,5
1,42,4,3,34,1,1007,2,4,1
1,42,4,4,5,1,1116,7,1,3
1,42,4,5,46,2,3654,7,8,6
1,42,4,6,26,3,714,1,3,2
1,42,4,7,21,2,2725,6,2,8
1,42,4,8,17,1,2487,8,2,4
1,42,5,1,25,2,1212,1,2,3
1,42,5,2,41,1,1212,8,5,7
1,42,5,3,48,2,1009,8,7,6
1,42,5,4,23,2,894,8,2,6
1,42,5,5,33,3,2596,2,1,4
1,42,5,6,6,1,1636,7,3,1
1,42,5,7,8,2,1988,1,7,5
1,42,5,8,13,3,961,2,4,8
1,42,6,1,40,2,1424,7,8,5
1,42,6,2,43,3,858,6,7,8
1,42,6,3,19,2,1502,2,6,8
1,42,6,4,35,2,1137,4,1,2
1,42,6,5,2,2,1131,1,7,3
1,42,6,6,29,3,1270,3,1,2
1,42,6,7,11,3,1626,7,1,5
1,42,6,8,14,2,917,2,8,4
1,42,7,1,47,1,635,8,6,7
1,42,7,2,26,3,1217,1,3,2
1,42,7,3,13,3,1033,2,4,8
1,42,7,4,23,2,799,8,2,6
1,42,7,5,33,1,1095,2,1,4
1,42,7,6,1,3,875,1,3,7
1,42,7,7,9,2,1390,5,1,7
1,42,7,8,41,1,1880,8,5,7
1,42,8,1,5,1,1096,7,1,3
1,42,8,2,43,2,1260,6,7,8
1,42,8,3,28,1,816,2,3,1
1,42,8,4,35,2,832,4,1,2
1,42,8,5,16,2,1024,4,8,2
1,42,8,6,20,2,776,2,8,6
1,42,8,7,42,3,1024,8,7,5
1,42,8,8,12,3,1090,7,5,1
1,42,9,1,29,3,1100,3,1,2
1,42,9,2,45,1,777,7,6,8
1,42,9,3,21,2,1265,6,2,8
1,42,9,4,2,2,1026,1,7,3
1,42,9,5,39,3,1945,7,5,8
1,42,9,6,34,2,1171,2,4,1
1,42,9,7,11,1,1939,7,1,5
1,42,9,8,14,2,748,2,8,4
1,42,10,1,36,2,590,4,2,1
1,42,10,2,25,2,591,1,2,3
1,42,10,3,19,3,1060,2,6,8
1,42,10,4,37,3,1017,5,7,8
1,42,10,5,8,2,748,1,7,5
1,42,10,6,4,2,615,3,7,1
1,42,10,7,17,2,862,8,2,4
1,42,10,8,44,2,2470,6,8,7
1,42,11,1,27,1,907,2,1,3
1,42,11,2,6,1,1196,7,3,1
1,42,11,3,38,2,668,5,8,7
1,42,11,4,15,2,3043,4,2,8
1,42,11,5,46,3,3668,7,8,6
1,42,11,6,32,2,1426,1,4,2
1,42,11,7,24,3,1051,8,6,2
1,42,11,8,10,2,1468,5,7,1
1,42,12,1,48,2,1399,8,7,6
1,42,12,2,3,3,1616,3,1,7
1,42,12,3,7,1,1402,1,5,7
1,42,12,4,30,2,2563,3,2,1
1,42,12,5,18,3,2117,8,4,2
1,42,12,6,40,3,1007,7,8,5
1,42,12,7,31,2,1274,1,2,4
1,42,12,8,22,3,2392,6,8,2
1,43,1,1,45,1,2092,7,6,8
1,43,1,2,32,1,1434,1,4,2
1,43,1,3,1,3,1451,1,3,7
1,43,1,4,30,1,664,3,2,1
1,43,1,5,10,2,599,5,7,1
1,43,1,6,39,1,3093,7,5,8
1,43,1,7,23,3,922,8,2,6
1,43,1,8,18,1,885,8,4,2
1,43,2,1,37,1,1654,5,7,8
1,43,2,2,7,1,1034,1,5,7
1,43,2,3,16,2,1662,4,8,2
1,43,2,4,22,3,955,6,8,2
1,43,2,5,28,1,2293,2,3,1
1,43,2,6,31,3,810,1,2,4
1,43,2,7,6,1,815,7,3,1
1,43,2,8,47,3,729,8,6,7
1,43,3,1,8,1,1252,1,7,5
1,43,3,2,36,3,862,4,2,1
1,43,3,3,27,1,711,2,1,3
1,43,3,4,40,1,1563,7,8,5
1,43,3,5,14,3,693,2,8,4
1,43,3,6,43,1,931,6,7,8
1,43,3,7,19,3,839,2,6,8
1,43,3,8,5,1,1320,7,1,3
1,43,4,1,13,3,586,2,4,8
1,43,4,2,44,2,1912,6,8,7
1,43,4,3,25,2,952,1,2,3
1,43,4,4,38,2,824,5,8,7
1,43,4,5,24,1,768,8,6,2
1,43,4,6,34,2,848,2,4,1
1,43,4,7,9,3,638,5,1,7
1,43,4,8,3,3,808,3,1,7
1,43,5,1,41,1,1008,8,5,7
1,43,5,2,35,2,726,4,1,2
1,43,5,3,46,3,1000,7,8,6
1,43,5,4,2,2,1007,1,7,3
1,43,5,5,26,2,838,1,3,2
1,43,5,6,11,2,909,7,1,5
1,43,5,7,17,1,651,8,2,4
1,43,5,8,21,3,610,6,2,8
1,43,6,1,12,3,748,7,5,1
1,43,6,2,48,2,667,8,7,6
1,43,6,3,15,3,655,4,2,8
1,43,6,4,33,2,637,2,1,4
1,43,6,5,4,2,508,3,7,1
1,43,6,6,42,3,720,8,7,5
1,43,6,7,20,2,668,2,8,6
1,43,6,8,29,3,921,3,1,2
1,43,7,1,36,3,682,4,2,1
1,43,7,2,37,3,630,5,7,8
1,43,7,3,10,3,1148,5,7,1
1,43,7,4,6,1,693,7,3,1
1,43,7,5,14,2,711,2,8,4
1,43,7,6,21,3,572,6,2,8
1,43,7,7,28,2,690,2,3,1
1,43,7,8,46,3,749,7,8,6
1,43,8,1,2,2,595,1,7,3
1,43,8,2,40,2,509,7,8,5
1,43,8,3,24,2,551,8,6,2
1,43,8,4,29,2,826,3,1,2
1,43,8,5,12,3,1500,7,5,1
1,43,8,6,16,2,654,4,8,2
1,43,8,7,43,3,1091,6,7,8
1,43,8,8,34,2,1032,2,4,1
1,43,9,1,38,2,699,5,8,7
1,43,9,2,27,3,2159,2,1,3
1,43,9,3,9,2,600,5,1,7
1,43,9,4,45,3,699,7,6,8
1,43,9,5,35,2,609,4,1,2
1,43,9,6,18,1,994,8,4,2
1,43,9,7,20,2,556,2,8,6
1,43,9,8,1,3,692,1,3,7
1,43,10,1,32,1,1130,1,4,2
1,43,10,2,44,2,654,6,8,7
1,43,10,3,15,3,778,4,2,8
1,43,10,4,11,2,618,7,1,5
1,43,10,5,42,1,579,8,7,5
1,43,10,6,3,3,597,3,1,7
1,43,10,7,23,2,642,8,2,6
1,43,10,8,30,2,687,3,2,1
1,43,11,1,4,2,588,3,7,1
1,43,11,2,17,1,757,8,2,4
1,43,11,3,39,2,482,7,5,8
1,43,11,4,33,2,782,2,1,4
1,43,11,5,26,2,504,1,3,2
1,43,11,6,19,2,510,2,6,8
1,43,11,7,7,2,546,1,5,7
1,43,11,8,48,2,431,8,7,6
1,43,12,1,8,2,535,1,7,5
1,43,12,2,13,3,643,2,4,8
1,43,12,3,41,1,1106,8,5,7
1,43,12,4,25,2,631,1,2,3
1,43,12,5,5,1,642,7,1,3
1,43,12,6,47,2,588,8,6,7
1,43,12,7,22,1,761,6,8,2
1,43,12,8,31,2,1009,1,2,4
1,44001,1,1,3,3,918,3,1,7
1,44001,1,2,22,2,1839,6,8,2
1,44001,1,3,29,3,1167,3,1,2
1,44001,1,4,44,3,1159,6,8,7
1,44001,1,5,14,2,813,2,8,4
1,44001,1,6,11,2,832,7,1,5
1,44001,1,7,40,2,774,7,8,5
1,44001,1,8,32,1,676,1,4,2
1,44001,2,1,30,2,1166,3,2,1
1,44001,2,2,15,3,715,4,2,8
1,44001,2,3,31,1,732,1,2,4
1,44001,2,4,5,1,650,7,1,3
1,44001,2,5,12,1,900,7,5,1
1,44001,2,6,38,2,591,5,8,7
1,44001,2,7,48,2,495,8,7,6
1,44001,2,8,19,3,719,2,6,8
1,44001,3,1,4,2,443,3,7,1
1,44001,3,2,23,2,587,8,2,6
1,44001,3,3,26,1,687,1,3,2
1,44001,3,4,33,2,459,2,1,4
1,44001,3,5,10,3,417,5,7,1
1,44001,3,6,43,2,977,6,7,8
1,44001,3,7,17,3,1157,8,2,4
1,44001,3,8,37,3,1200,5,7,8
1,44001,4,1,36,3,584,4,2,1
1,44001,4,2,45,1,637,7,6,8
1,44001,4,3,39,1,566,7,5,8
1,44001,4,4,18,3,605,8,4,2
1,44001,4,5,20,3,1059,2,8,6
1,44001,4,6,27,2,616,2,1,3
1,44001,4,7,1,3,1051,1,3,7
1,44001,4,8,7,3,1193,1,5,7
1,44001,5,1,25,2,812,1,2,3
1,44001,5,2,47,3,480,8,6,7
1,44001,5,3,13,3,635,2,4,8
1,44001,5,4,35,2,649,4,1,2
1,44001,5,5,2,2,794,1,7,3
1,44001,5,6,41,3,694,8,5,7
1,44001,5,7,8,1,618,1,7,5
1,44001,5,8,24,3,1269,8,6,2
1,44001,6,1,42,2,481,8,7,5
1,44001,6,2,6,3,577,7,3,1
1,44001,6,3,21,1,1322,6,2,8
1,44001,6,4,46,1,581,7,8,6
1,44001,6,5,28,3,669,2,3,1
1,44001,6,6,16,3,1178,4,8,2
1,44001,6,7,34,3,637,2,4,1
1,44001,6,8,9,2,1132,5,1,7
1,44001,7,1,39,3,841,7,5,8
1,44001,7,2,1,3,467,1,3,7
1,44001,7,3,35,2,798,4,1,2
1,44001,7,4,14,2,561,2,8,4
1,44001,7,5,19,3,753,2,6,8
1,44001,7,6,12,1,953,7,5,1
1,44001,7,7,30,3,883,3,2,1
1,44001,7,8,44,2,1013,6,8,7
1,44001,8,1,4,2,648,3,7,1
1,44001,8,2,38,2,640,5,8,7
1,44001,8,3,7,3,554,1,5,7
1,44001,8,4,26,3,530,1,3,2
1,44001,8,5,43,2,979,6,7,8
1,44001,8,6,18,1,996,8,4,2
1,44001,8,7,24,3,924,8,6,2
1,44001,8,8,36,3,1226,4,2,1
1,44001,9,1,21,2,1124,6,2,8
1,44001,9,2,5,1,849,7,1,3
1,44001,9,3,45,3,629,7,6,8
1,44001,9,4,40,2,720,7,8,5
1,44001,9,5,31,1,1409,1,2,4
1,44001,9,6,25,1,917,1,2,3
1,44001,9,7,15,3,2106,4,2,8
1,44001,9,8,11,1,717,7,1,5
1,44001,10,1,22,2,552,6,8,2
1,44001,10,2,37,3,528,5,7,8
1,44001,10,3,27,3,989,2,1,3
1,44001,10,4,2,1,1088,1,7,3
1,44001,10,5,10,2,1029,5,7,1
1,44001,10,6,16,2,952,4,8,2
1,44001,10,7,34,3,661,2,4,1
1,44001,10,8,47,1,681,8,6,7
1,44001,11,1,9,3,816,5,1,7
1,44001,11,2,46,2,757,7,8,6
1,44001,11,3,32,2,654,1,4,2
1,44001,11,4,28,3,767,2,3,1
1,44001,11,5,41,1,1069,8,5,7
1,44001,11,6,6,1,793,7,3,1
1,44001,11,7,17,1,1223,8,2,4
1,44001,11,8,23,2,599,8,2,6
1,44001,12,1,48,2,543,8,7,6
1,44001,12,2,8,1,839,1,7,5
1,44001,12,3,29,1,885,3,1,2
1,44001,12,4,33,2,1217,2,1,4
1,44001,12,5,20,2,688,2,8,6
1,44001,12,6,3,3,572,3,1,7
1,44001,12,7,42,2,573,8,7,5
1,44001,12,8,13,3,1661,2,4,8
1,44002,1,1,17,1,1383,8,2,4
1,44002,1,2,31,3,2175,1,2,4
1,44002,1,3,48,2,966,8,7,6
1,44002,1,4,38,1,1760,5,8,7
1,44002,1,5,6,2,820,7,3,1
1,44002,1,6,8,2,772,1,7,5
1,44002,1,7,23,1,1889,8,2,6
1,44002,1,8,25,3,1119,1,2,3
1,44002,2,1,12,1,868,7,5,1
1,44002,2,2,2,2,539,1,7,3
1,44002,2,3,37,3,738,5,7,8
1,44002,2,4,30,3,1380,3,2,1
1,44002,2,5,22,1,1075,6,8,2
1,44002,2,6,45,3,1058,7,6,8
1,44002,2,7,36,1,1421,4,2,1
1,44002,2,8,15,3,705,4,2,8
1,44002,3,1,19,3,620,2,6,8
1,44002,3,2,3,3,683,3,1,7
1,44002,3,3,16,2,526,4,8,2
1,44002,3,4,32,2,1050,1,4,2
1,44002,3,5,43,2,1376,6,7,8
1,44002,3,6,40,3,960,7,8,5
1,44002,3,7,27,1,914,2,1,3
1,44002,3,8,9,3,702,5,1,7
1,44002,4,1,5,1,625,7,1,3
1,44002,4,2,20,2,708,2,8,6
1,44002,4,3,7,3,710,1,5,7
1,44002,4,4,47,3,1290,8,6,7
1,44002,4,5,29,1,1182,3,1,2
1,44002,4,6,35,2,1232,4,1,2
1,44002,4,7,42,1,7103,8,7,5
1,44002,4,8,13,3,1114,2,4,8
1,44002,5,1,1,3,448,1,3,7
1,44002,5,2,26,2,915,1,3,2
1,44002,5,3,46,2,703,7,8,6
1,44002,5,4,24,1,753,8,6,2
1,44002,5,5,41,1,634,8,5,7
1,44002,5,6,33,3,769,2,1,4
1,44002,5,7,18,1,568,8,4,2
1,44002,5,8,10,3,1076,5,7,1
1,44002,6,1,4,2,574,3,7,1
1,44002,6,2,44,2,557,6,8,7
1,44002,6,3,39,1,518,7,5,8
1,44002,6,4,21,1,607,6,2,8
1,44002,6,5,14,2,856,2,8,4
1,44002,6,6,11,2,1245,7,1,5
1,44002,6,7,34,3,1205,2,4,1
1,44002,6,8,28,3,911,2,3,1
1,44002,7,1,20,2,492,2,8,6
1,44002,7,2,33,2,1085,2,1,4
1,44002,7,3,43,3,609,6,7,8
1,44002,7,4,17,1,521,8,2,4
1,44002,7,5,9,3,656,5,1,7
1,44002,7,6,29,3,771,3,1,2
1,44002,7,7,37,3,650,5,7,8
1,44002,7,8,3,3,956,3,1,7
1,44002,8,1,46,2,648,7,8,6
1,44002,8,2,30,2,1260,3,2,1
1,44002,8,3,16,2,906,4,8,2
1,44002,8,4,36,2,717,4,2,1
1,44002,8,5,11,3,1053,7,1,5
1,44002,8,6,6,3,760,7,3,1
1,44002,8,7,19,3,1258,2,6,8
1,44002,8,8,41,3,1079,8,5,7
1,44002,9,1,47,1,692,8,6,7
1,44002,9,2,38,1,837,5,8,7
1,44002,9,3,4,2,626,3,7,1
1,44002,9,4,35,2,868,4,1,2
1,44002,9,5,13,3,624,2,4,8
1,44002,9,6,23,3,986,8,2,6
1,44002,9,7,12,1,1879,7,5,1
1,44002,9,8,28,3,1318,2,3,1
1,44002,10,1,2,2,678,1,7,3
1,44002,10,2,7,2,1510,1,5,7
1,44002,10,3,31,3,1617,1,2,4
1,44002,10,4,27,1,1792,2,1,3
1,44002,10,5,24,1,661,8,6,2
1,44002,10,6,42,1,1934,8,7,5
1,44002,10,7,14,2,633,2,8,4
1,44002,10,8,44,2,551,6,8,7
1,44002,11,1,8,1,1963,1,7,5
1,44002,11,2,26,3,1254,1,3,2
1,44002,11,3,18,1,675,8,4,2
1,44002,11,4,32,3,775,1,4,2
1,44002,11,5,45,1,914,7,6,8
1,44002,11,6,39,1,1417,7,5,8
1,44002,11,7,1,3,659,1,3,7
1,44002,11,8,22,2,650,6,8,2
1,44002,12,1,40,2,1349,7,8,5
1,44002,12,2,48,2,1206,8,7,6
1,44002,12,3,5,1,668,7,1,3
1,44002,12,4,21,3,1105,6,2,8
1,44002,12,5,15,3,702,4,2,8
1,44002,12,6,25,2,1052,1,2,3
1,44002,12,7,34,2,577,2,4,1
1,44002,12,8,10,3,1053,5,7,1
1,44004,1,1,37,3,1191,5,7,8
1,44004,1,2,48,2,644,8,7,6
1,44004,1,3,23,2,829,8,2,6
1,44004,1,4,36,3,1638,4,2,1
1,44004,1,5,6,1,1354,7,3,1
1,44004,1,6,12,1,2147,7,5,1
1,44004,1,7,29,3,1860,3,1,2
1,44004,1,8,14,2,1071,2,8,4
1,44004,2,1,33,3,1402,2,1,4
1,44004,2,2,21,3,850,6,2,8
1,44004,2,3,38,2,1136,5,8,7
1,44004,2,4,13,3,701,2,4,8
1,44004,2,5,2,2,660,1,7,3
1,44004,2,6,26,3,1949,1,3,2
1,44004,2,7,7,3,643,1,5,7
1,44004,2,8,45,1,950,7,6,8
1,44004,3,1,8,2,693,1,7,5
1,44004,3,2,40,2,1119,7,8,5
1,44004,3,3,5,1,544,7,1,3
1,44004,3,4,17,1,782,8,2,4
1,44004,3,5,19,3,1253,2,6,8
1,44004,3,6,46,1,654,7,8,6
1,44004,3,7,32,2,1358,1,4,2
1,44004,3,8,27,3,831,2,1,3
1,44004,4,1,39,1,951,7,5,8
1,44004,4,2,35,3,1128,4,1,2
1,44004,4,3,20,2,909,2,8,6
1,44004,4,4,3,3,615,3,1,7
1,44004,4,5,43,2,1400,6,7,8
1,44004,4,6,15,3,685,4,2,8
1,44004,4,7,28,1,951,2,3,1
1,44004,4,8,10,2,613,5,7,1
1,44004,5,1,16,2,646,4,8,2
1,44004,5,2,9,3,606,5,1,7
1,44004,5,3,34,2,609,2,4,1
1,44004,5,4,47,3,692,8,6,7
1,44004,5,5,41,3,2416,8,5,7
1,44004,5,6,1,3,515,1,3,7
1,44004,5,7,24,1,1082,8,6,2
1,44004,5,8,30,2,793,3,2,1
1,44004,6,1,42,2,438,8,7,5
1,44004,6,2,22,2,676,6,8,2
1,44004,6,3,4,2,540,3,7,1
1,44004,6,4,18,1,668,8,4,2
1,44004,6,5,31,2,651,1,2,4
1,44004,6,6,25,2,641,1,2,3
1,44004,6,7,11,1,1301,7,1,5
1,44004,6,8,44,2,1028,6,8,7
1,44004,7,1,29,3,772,3,1,2
1,44004,7,2,15,3,611,4,2,8
1,44004,7,3,39,1,1046,7,5,8
1,44004,7,4,23,3,1091,8,2,6
1,44004,7,5,2,2,577,1,7,3
1,44004,7,6,32,3,981,1,4,2
1,44004,7,7,8,2,970,1,7,5
1,44004,7,8,46,1,701,7,8,6
1,44004,8,1,20,2,865,2,8,6
1,44004,8,2,47,3,1430,8,6,7
1,44004,8,3,9,3,1261,5,1,7
1,44004,8,4,31,2,704,1,2,4
1,44004,8,5,38,2,1659,5,8,7
1,44004,8,6,26,3,891,1,3,2
1,44004,8,7,14,2,653,2,8,4
1,44004,8,8,6,1,611,7,3,1
1,44004,9,1,25,2,541,1,2,3
1,44004,9,2,7,3,670,1,5,7
1,44004,9,3,5,1,677,7,1,3
1,44004,9,4,33,1,1003,2,1,4
1,44004,9,5,22,2,600,6,8,2
1,44004,9,6,16,2,570,4,8,2
1,44004,9,7,37,2,439,5,7,8
1,44004,9,8,44,2,1443,6,8,7
1,44004,10,1,42,2,1069,8,7,5
1,44004,10,2,4,2,523,3,7,1
1,44004,10,3,12,1,797,7,5,1
1,44004,10,4,13,3,579,2,4,8
1,44004,10,5,43,3,1703,6,7,8
1,44004,10,6,28,1,644,2,3,1
1,44004,10,7,35,3,695,4,1,2
1,44004,10,8,19,2,1004,2,6,8
1,44004,11,1,10,2,541,5,7,1
1,44004,11,2,48,1,601,8,7,6
1,44004,11,3,27,1,549,2,1,3
1,44004,11,4,34,1,642,2,4,1
1,44004,11,5,24,3,492,8,6,2
1,44004,11,6,18,1,886,8,4,2
1,44004,11,7,1,3,613,1,3,7
1,44004,11,8,41,3,1027,8,5,7
1,44004,12,1,21,3,1047,6,2,8
1,44004,12,2,45,1,711,7,6,8
1,44004,12,3,11,1,783,7,1,5
1,44004,12,4,36,2,804,4,2,1
1,44004,12,5,30,2,385,3,2,1
1,44004,12,6,3,3,1072,3,1,7
1,44004,12,7,40,2,1140,7,8,5
1,44004,12,8,17,1,530,8,2,4
1,44005,1,1,27,2,1354,2,1,3
1,44005,1,2,12,3,1456,7,5,1
1,44005,1,3,39,3,1005,7,5,8
1,44005,1,4,44,3,659,6,8,7
1,44005,1,5,2,2,883,1,7,3
1,44005,1,6,36,2,839,4,2,1
1,44005,1,7,16,2,4108,4,8,2
1,44005,1,8,19,3,760,2,6,8
1,44005,2,1,47,2,801,8,6,7
1,44005,2,2,29,3,718,3,1,2
1,44005,2,3,14,2,845,2,8,4
1,44005,2,4,3,3,810,3,1,7
1,44005,2,5,33,2,788,2,1,4
1,44005,2,6,21,3,710,6,2,8
1,44005,2,7,37,2,557,5,7,8
1,44005,2,8,10,2,563,5,7,1
1,44005,3,1,40,2,598,7,8,5
1,44005,3,2,30,2,699,3,2,1
1,44005,3,3,20,2,575,2,8,6
1,44005,3,4,32,2,682,1,4,2
1,44005,3,5,46,1,1027,7,8,6
1,44005,3,6,7,3,646,1,5,7
1,44005,3,7,17,1,1135,8,2,4
1,44005,3,8,1,3,654,1,3,7
1,44005,4,1,38,3,1025,5,8,7
1,44005,4,2,28,1,1674,2,3,1
1,44005,4,3,11,1,667,7,1,5
1,44005,4,4,35,2,956,4,1,2
1,44005,4,5,24,3,1269,8,6,2
1,44005,4,6,18,1,803,8,4,2
1,44005,4,7,48,2,718,8,7,6
1,44005,4,8,6,1,672,7,3,1
1,44005,5,1,41,3,819,8,5,7
1,44005,5,2,8,2,537,1,7,5
1,44005,5,3,31,1,1454,1,2,4
1,44005,5,4,23,2,963,8,2,6
1,44005,5,5,15,3,961,4,2,8
1,44005,5,6,43,2,753,6,7,8
1,44005,5,7,5,1,686,7,1,3
1,44005,5,8,25,1,1475,1,2,3
1,44005,6,1,13,3,580,2,4,8
1,44005,6,2,45,1,608,7,6,8
1,44005,6,3,42,2,692,8,7,5
1,44005,6,4,4,2,855,3,7,1
1,44005,6,5,9,2,1033,5,1,7
1,44005,6,6,26,2,694,1,3,2
1,44005,6,7,22,2,687,6,8,2
1,44005,6,8,34,3,889,2,4,1
1,44005,7,1,44,3,739,6,8,7
1,44005,7,2,39,1,1285,7,5,8
1,44005,7,3,25,2,602,1,2,3
1,44005,7,4,8,2,481,1,7,5
1,44005,7,5,31,2,565,1,2,4
1,44005,7,6,3,3,877,3,1,7
1,44005,7,7,20,2,530,2,8,6
1,44005,7,8,18,1,589,8,4,2
1,44005,8,1,34,1,580,2,4,1
1,44005,8,2,16,2,555,4,8,2
1,44005,8,3,7,1,852,1,5,7
1,44005,8,4,23,2,947,8,2,6
1,44005,8,5,40,2,950,7,8,5
1,44005,8,6,29,3,831,3,1,2
1,44005,8,7,6,1,531,7,3,1
1,44005,8,8,43,2,531,6,7,8
1,44005,9,1,19,1,781,2,6,8
1,44005,9,2,15,3,1741,4,2,8
1,44005,9,3,46,1,807,7,8,6
1,44005,9,4,4,2,596,3,7,1
1,44005,9,5,32,1,739,1,4,2
1,44005,9,6,9,2,824,5,1,7
1,44005,9,7,27,1,1167,2,1,3
1,44005,9,8,41,1,1378,8,5,7
1,44005,10,1,13,3,601,2,4,8
1,44005,10,2,11,1,811,7,1,5
1,44005,10,3,48,3,1454,8,7,6
1,44005,10,4,42,2,1398,8,7,5
1,44005,10,5,28,1,542,2,3,1
1,44005,10,6,5,1,451,7,1,3
1,44005,10,7,33,2,628,2,1,4
1,44005,10,8,22,2,462,6,8,2
1,44005,11,1,36,3,612,4,2,1
1,44005,11,2,12,1,800,7,5,1
1,44005,11,3,1,3,541,1,3,7
1,44005,11,4,30,2,592,3,2,1
1,44005,11,5,45,1,397,7,6,8
1,44005,11,6,37,2,464,5,7,8
1,44005,11,7,24,3,664,8,6,2
1,44005,11,8,17,2,562,8,2,4
1,44005,12,1,35,2,636,4,1,2
1,44005,12,2,14,2,422,2,8,4
1,44005,12,3,10,2,393,5,7,1
1,44005,12,4,2,1,701,1,7,3
1,44005,12,5,21,3,1355,6,2,8
1,44005,12,6,38,2,478,5,8,7
1,44005,12,7,26,3,660,1,3,2
1,44005,12,8,47,1,1037,8,6,7
1,44006,1,1,13,3,951,2,4,8
1,44006,1,2,29,3,637,3,1,2
1,44006,1,3,39,3,435,7,5,8
1,44006,1,4,3,3,1003,3,1,7
1,44006,1,5,8,2,561,1,7,5
1,44006,1,6,48,3,861,8,7,6
1,44006,1,7,35,3,738,4,1,2
1,44006,1,8,20,2,534,2,8,6
1,44006,2,1,44,2,676,6,8,7
1,44006,2,2,11,3,516,7,1,5
1,44006,2,3,40,3,723,7,8,5
1,44006,2,4,19,3,599,2,6,8
1,44006,2,5,6,1,474,7,3,1
1,44006,2,6,30,3,686,3,2,1
1,44006,2,7,36,2,700,4,2,1
1,44006,2,8,14,2,757,2,8,4
1,44006,3,1,24,2,548,8,6,2
1,44006,3,2,33,2,841,2,1,4
1,44006,3,3,10,2,560,5,7,1
1,44006,3,4,17,2,593,8,2,4
1,44006,3,5,1,3,584,1,3,7
1,44006,3,6,43,2,506,6,7,8
1,44006,3,7,28,2,758,2,3,1
1,44006,3,8,42,1,1539,8,7,5
1,44006,4,1,32,3,612,1,4,2
1,44006,4,2,46,1,696,7,8,6
1,44006,4,3,2,2,610,1,7,3
1,44006,4,4,41,3,549,8,5,7
1,44006,4,5,22,2,457,6,8,2
1,44006,4,6,25,2,519,1,2,3
1,44006,4,7,15,3,565,4,2,8
1,44006,4,8,9,2,654,5,1,7
1,44006,5,1,26,3,554,1,3,2
1,44006,5,2,31,2,470,1,2,4
1,44006,5,3,18,2,905,8,4,2
1,44006,5,4,5,2,605,7,1,3
1,44006,5,5,7,1,684,1,5,7
1,44006,5,6,23,1,704,8,2,6
1,44006,5,7,37,3,582,5,7,8
1,44006,5,8,45,2,533,7,6,8
1,44006,6,1,21,3,568,6,2,8
1,44006,6,2,34,2,504,2,4,1
1,44006,6,3,27,1,604,2,1,3
1,44006,6,4,47,3,567,8,6,7
1,44006,6,5,38,2,463,5,8,7
1,44006,6,6,12,3,653,7,5,1
1,44006,6,7,4,3,570,3,7,1
1,44006,6,8,16,2,396,4,8,2
1,44006,7,1,2,2,421,1,7,3
1,44006,7,2,41,3,485,8,5,7
1,44006,7,3,15,2,644,4,2,8
1,44006,7,4,10,3,805,5,7,1
1,44006,7,5,48,1,542,8,7,6
1,44006,7,6,35,3,509,4,1,2
1,44006,7,7,20,2,527,2,8,6
1,44006,7,8,28,1,533,2,3,1
1,44006,8,1,38,3,637,5,8,7
1,44006,8,2,29,3,631,3,1,2
1,44006,8,3,46,2,502,7,8,6
1,44006,8,4,34,3,654,2,4,1
1,44006,8,5,6,1,615,7,3,1
1,44006,8,6,12,3,711,7,5,1
1,44006,8,7,21,3,675,6,2,8
1,44006,8,8,16,2,573,4,8,2
1,44006,9,1,8,1,500,1,7,5
1,44006,9,2,4,3,640,3,7,1
1,44006,9,3,36,3,590,4,2,1
1,44006,9,4,40,2,712,7,8,5
1,44006,9,5,18,1,566,8,4,2
1,44006,9,6,44,3,543,6,8,7
1,44006,9,7,27,1,641,2,1,3
1,44006,9,8,22,3,678,6,8,2
1,44006,10,1,37,3,398,5,7,8
1,44006,10,2,43,1,402,6,7,8
1,44006,10,3,31,1,734,1,2,4
1,44006,10,4,19,3,695,2,6,8
1,44006,10,5,14,2,397,2,8,4
1,44006,10,6,3,3,434,3,1,7
1,44006,10,7,9,2,577,5,1,7
1,44006,10,8,26,1,542,1,3,2
1,44006,11,1,33,2,628,2,1,4
1,44006,11,2,47,3,437,8,6,7
1,44006,11,3,11,2,495,7,1,5
1,44006,11,4,25,2,545,1,2,3
1,44006,11,5,1,2,1007,1,3,7
1,44006,11,6,39,3,751,7,5,8
1,44006,11,7,17,1,595,8,2,4
1,44006,11,8,23,1,599,8,2,6
1,44006,12,1,45,1,1959,7,6,8
1,44006,12,2,32,1,618,1,4,2
1,44006,12,3,5,1,1036,7,1,3
1,44006,12,4,13,3,470,2,4,8
1,44006,12,5,24,1,687,8,6,2
1,44006,12,6,30,2,1288,3,2,1
1,44006,12,7,7,1,731,1,5,7
1,44006,12,8,42,3,628,8,7,5
1,44007,1,1,35,2,1183,4,1,2
1,44007,1,2,38,3,1588,5,8,7
1,44007,1,3,25,2,474,1,2,3
1,44007,1,4,18,1,567,8,4,2
1,44007,1,5,19,3,1499,2,6,8
1,44007,1,6,48,2,519,8,7,6
1,44007,1,7,1,1,2371,1,3,7
1,44007,1,8,8,3,1294,1,7,5
1,44007,2,1,28,3,1758,2,3,1
1,44007,2,2,15,3,700,4,2,8
1,44007,2,3,21,2,786,6,2,8
1,44007,2,4,31,3,1203,1,2,4
1,44007,2,5,10,2,848,5,7,1
1,44007,2,6,2,2,782,1,7,3
1,44007,2,7,44,3,533,6,8,7
1,44007,2,8,37,3,739,5,7,8
1,44007,3,1,14,2,497,2,8,4
1,44007,3,2,47,3,2131,8,6,7
1,44007,3,3,34,3,663,2,4,1
1,44007,3,4,24,3,1119,8,6,2
1,44007,3,5,7,1,556,1,5,7
1,44007,3,6,30,2,551,3,2,1
1,44007,3,7,4,3,591,3,7,1
1,44007,3,8,41,1,1574,8,5,7
1,44007,4,1,33,2,1064,2,1,4
1,44007,4,2,26,3,675,1,3,2
1,44007,4,3,45,1,681,7,6,8
1,44007,4,4,9,2,816,5,1,7
1,44007,4,5,16,3,889,4,8,2
1,44007,4,6,5,2,526,7,1,3
1,44007,4,7,40,3,999,7,8,5
1,44007,4,8,20,1,900,2,8,6
1,44007,5,1,6,3,566,7,3,1
1,44007,5,2,13,1,657,2,4,8
1,44007,5,3,32,3,784,1,4,2
1,44007,5,4,46,1,710,7,8,6
1,44007,5,5,27,2,891,2,1,3
1,44007,5,6,42,3,616,8,7,5
1,44007,5,7,11,2,1125,7,1,5
1,44007,5,8,23,2,671,8,2,6
1,44007,6,1,29,3,458,3,1,2
1,44007,6,2,3,2,519,3,1,7
1,44007,6,3,22,3,438,6,8,2
1,44007,6,4,43,1,572,6,7,8
1,44007,6,5,36,3,408,4,2,1
1,44007,6,6,12,3,397,7,5,1
1,44007,6,7,17,2,705,8,2,4
1,44007,6,8,39,2,745,7,5,8
1,44007,7,1,30,3,372,3,2,1
1,44007,7,2,6,3,301,7,3,1
1,44007,7,3,16,3,464,4,8,2
1,44007,7,4,47,3,941,8,6,7
1,44007,7,5,21,2,552,6,2,8
1,44007,7,6,38,1,794,5,8,7
1,44007,7,7,8,1,797,1,7,5
1,44007,7,8,31,2,751,1,2,4
1,44007,8,1,1,1,577,1,3,7
1,44007,8,2,18,3,709,8,4,2
1,44007,8,3,20,1,562,2,8,6
1,44007,8,4,11,2,403,7,1,5
1,44007,8,5,32,1,405,1,4,2
1,44007,8,6,41,1,1014,8,5,7
1,44007,8,7,46,2,760,7,8,6
1,44007,8,8,29,3,545,3,1,2
1,44007,9,1,36,3,349,4,2,1
1,44007,9,2,3,2,1270,3,1,7
1,44007,9,3,45,3,737,7,6,8
1,44007,9,4,39,3,381,7,5,8
1,44007,9,5,27,1,537,2,1,3
1,44007,9,6,19,3,376,2,6,8
1,44007,9,7,13,3,444,2,4,8
1,44007,9,8,12,3,1052,7,5,1
1,44007,10,1,15,1,577,4,2,8
1,44007,10,2,48,3,464,8,7,6
1,44007,10,3,2,2,926,1,7,3
1,44007,10,4,34,1,665,2,4,1
1,44007,10,5,9,2,578,5,1,7
1,44007,10,6,37,3,467,5,7,8
1,44007,10,7,22,3,730,6,8,2
1,44007,10,8,28,3,672,2,3,1
1,44007,11,1,40,3,595,7,8,5
1,44007,11,2,24,3,285,8,6,2
1,44007,11,3,44,1,653,6,8,7
1,44007,11,4,4,3,338,3,7,1
1,44007,11,5,35,2,1120,4,1,2
1,44007,11,6,25,2,535,1,2,3
1,44007,11,7,7,1,632,1,5,7
1,44007,11,8,17,3,869,8,2,4
1,44007,12,1,23,2,390,8,2,6
1,44007,12,2,26,3,483,1,3,2
1,44007,12,3,33,1,614,2,1,4
1,44007,12,4,14,2,1053,2,8,4
1,44007,12,5,5,2,1180,7,1,3
1,44007,12,6,42,3,1246,8,7,5
1,44007,12,7,43,1,688,6,7,8
1,44007,12,8,10,3,1330,5,7,1
1,44014,1,1,14,2,1617,2,8,4
1,44014,1,2,29,1,1361,3,1,2
1,44014,1,3,46,1,553,7,8,6
1,44014,1,4,6,1,807,7,3,1
1,44014,1,5,32,1,708,1,4,2
1,44014,1,6,38,2,1135,5,8,7
1,44014,1,7,7,1,628,1,5,7
1,44014,1,8,23,2,704,8,2,6
1,44014,2,1,10,3,681,5,7,1
1,44014,2,2,16,2,620,4,8,2
1,44014,2,3,33,2,711,2,1,4
1,44014,2,4,5,1,678,7,1,3
1,44014,2,5,43,2,594,6,7,8
1,44014,2,6,22,1,682,6,8,2
1,44014,2,7,26,1,1454,1,3,2
1,44014,2,8,41,3,588,8,5,7
1,44014,3,1,2,2,997,1,7,3
1,44014,3,2,17,1,1110,8,2,4
1,44014,3,3,48,2,588,8,7,6
1,44014,3,4,24,2,1275,8,6,2
1,44014,3,5,25,2,1649,1,2,3
1,44014,3,6,8,3,1162,1,7,5
1,44014,3,7,37,2,781,5,7,8
1,44014,3,8,34,3,861,2,4,1
1,44014,4,1,42,2,800,8,7,5
1,44014,4,2,9,2,1565,5,1,7
1,44014,4,3,47,3,601,8,6,7
1,44014,4,4,35,2,692,4,1,2
1,44014,4,5,1,3,563,1,3,7
1,44014,4,6,28,2,966,2,3,1
1,44014,4,7,13,3,827,2,4,8
1,44014,4,8,19,3,605,2,6,8
1,44014,5,1,27,3,579,2,1,3
1,44014,5,2,12,3,1134,7,5,1
1,44014,5,3,20,2,739,2,8,6
1,44014,5,4,15,3,550,4,2,8
1,44014,5,5,3,3,674,3,1,7
1,44014,5,6,45,1,578,7,6,8
1,44014,5,7,31,1,742,1,2,4
1,44014,5,8,39,3,611,7,5,8
1,44014,6,1,30,1,729,3,2,1
1,44014,6,2,4,2,566,3,7,1
1,44014,6,3,18,1,499,8,4,2
1,44014,6,4,21,3,490,6,2,8
1,44014,6,5,36,3,970,4,2,1
1,44014,6,6,11,1,759,7,1,5
1,44014,6,7,44,3,598,6,8,7
1,44014,6,8,40,1,641,7,8,5
1,44014,7,1,33,2,962,2,1,4
1,44014,7,2,19,3,603,2,6,8
1,44014,7,3,5,1,674,7,1,3
1,44014,7,4,37,3,599,5,7,8
1,44014,7,5,9,3,1000,5,1,7
1,44014,7,6,47,1,1443,8,6,7
1,44014,7,7,27,2,773,2,1,3
1,44014,7,8,16,2,681,4,8,2
1,44014,8,1,32,1,861,1,4,2
1,44014,8,2,46,2,1774,7,8,6
1,44014,8,3,17,1,627,8,2,4
1,44014,8,4,7,1,1276,1,5,7
1,44014,8,5,41,1,733,8,5,7
1,44014,8,6,30,2,1608,3,2,1
1,44014,8,7,6,1,844,7,3,1
1,44014,8,8,22,2,732,6,8,2
1,44014,9,1,42,1,1143,8,7,5
1,44014,9,2,23,1,757,8,2,6
1,44014,9,3,1,3,799,1,3,7
1,44014,9,4,43,3,1001,6,7,8
1,44014,9,5,25,1,1101,1,2,3
1,44014,9,6,36,3,916,4,2,1
1,44014,9,7,10,3,1107,5,7,1
1,44014,9,8,15,3,708,4,2,8
1,44014,10,1,12,3,669,7,5,1
1,44014,10,2,45,3,646,7,6,8
1,44014,10,3,18,1,797,8,4,2
1,44014,10,4,2,2,975,1,7,3
1,44014,10,5,29,3,1475,3,1,2
1,44014,10,6,24,1,875,8,6,2
1,44014,10,7,31,1,820,1,2,4
1,44014,10,8,40,2,734,7,8,5
1,44014,11,1,4,2,974,3,7,1
1,44014,11,2,38,2,619,5,8,7
1,44014,11,3,11,2,1382,7,1,5
1,44014,11,4,44,2,578,6,8,7
1,44014,11,5,34,3,719,2,4,1
1,44014,11,6,28,3,1078,2,3,1
1,44014,11,7,13,3,654,2,4,8
1,44014,11,8,20,2,647,2,8,6
1,44014,12,1,8,1,1120,1,7,5
1,44014,12,2,3,2,1534,3,1,7
1,44014,12,3,35,2,950,4,1,2
1,44014,12,4,21,3,652,6,2,8
1,44014,12,5,14,2,582,2,8,4
1,44014,12,6,48,1,658,8,7,6
1,44014,12,7,39,3,674,7,5,8
1,44014,12,8,26,1,906,1,3,2
1,44015,1,1,25,3,3212,1,2,3
1,44015,1,2,5,1,698,7,1,3
1,44015,1,3,45,1,1225,7,6,8
1,44015,1,4,32,2,1845,1,4,2
1,44015,1,5,20,2,1867,2,8,6
1,44015,1,6,12,1,1308,7,5,1
1,44015,1,7,41,1,1093,8,5,7
1,44015,1,8,13,3,1035,2,4,8
1,44015,2,1,10,1,633,5,7,1
1,44015,2,2,48,1,682,8,7,6
1,44015,2,3,19,2,1661,2,6,8
1,44015,2,4,34,3,1861,2,4,1
1,44015,2,5,38,3,1203,5,8,7
1,44015,2,6,30,1,869,3,2,1
1,44015,2,7,4,2,958,3,7,1
1,44015,2,8,18,1,1291,8,4,2
1,44015,3,1,7,3,856,1,5,7
1,44015,3,2,28,2,1070,2,3,1
1,44015,3,3,46,2,640,7,8,6
1,44015,3,4,14,1,600,2,8,4
1,44015,3,5,3,3,678,3,1,7
1,44015,3,6,35,2,855,4,1,2
1,44015,3,7,42,2,544,8,7,5
1,44015,3,8,21,2,2692,6,2,8
1,44015,4,1,16,2,1302,4,8,2
1,44015,4,2,44,3,954,6,8,7
1,44015,4,3,31,1,682,1,2,4
1,44015,4,4,8,3,1479,1,7,5
1,44015,4,5,1,3,1649,1,3,7
1,44015,4,6,29,1,1229,3,1,2
1,44015,4,7,37,2,1432,5,7,8
1,44015,4,8,22,1,1121,6,8,2
1,44015,5,1,9,2,1600,5,1,7
1,44015,5,2,23,3,1950,8,2,6
1,44015,5,3,47,3,1057,8,6,7
1,44015,5,4,17,1,1391,8,2,4
1,44015,5,5,6,1,741,7,3,1
1,44015,5,6,27,3,1077,2,1,3
1,44015,5,7,40,1,1210,7,8,5
1,44015,5,8,33,2,750,2,1,4
1,44015,6,1,39,1,856,7,5,8
1,44015,6,2,11,1,1541,7,1,5
1,44015,6,3,15,3,1294,4,2,8
1,44015,6,4,2,2,1216,1,7,3
1,44015,6,5,43,1,1293,6,7,8
1,44015,6,6,36,3,996,4,2,1
1,44015,6,7,24,2,1233,8,6,2
1,44015,6,8,26,1,950,1,3,2
1,44015,7,1,16,2,809,4,8,2
1,44015,7,2,38,3,1305,5,8,7
1,44015,7,3,32,1,740,1,4,2
1,44015,7,4,45,1,629,7,6,8
1,44015,7,5,3,3,1254,3,1,7
1,44015,7,6,12,3,768,7,5,1
1,44015,7,7,22,3,1176,6,8,2
1,44015,7,8,29,2,709,3,1,2
1,44015,8,1,18,3,3170,8,4,2
1,44015,8,2,48,2,920,8,7,6
1,44015,8,3,2,2,704,1,7,3
1,44015,8,4,42,1,950,8,7,5
1,44015,8,5,31,1,748,1,2,4
1,44015,8,6,30,3,967,3,2,1
1,44015,8,7,21,3,853,6,2,8
1,44015,8,8,11,1,1191,7,1,5
1,44015,9,1,14,2,857,2,8,4
1,44015,9,2,5,1,654,7,1,3
1,44015,9,3,19,3,673,2,6,8
1,44015,9,4,40,1,1019,7,8,5
1,44015,9,5,27,3,1472,2,1,3
1,44015,9,6,33,2,800,2,1,4
1,44015,9,7,8,1,816,1,7,5
1,44015,9,8,44,3,822,6,8,7
1,44015,10,1,23,1,838,8,2,6
1,44015,10,2,47,3,666,8,6,7
1,44015,10,3,9,2,843,5,1,7
1,44015,10,4,15,3,1071,4,2,8
1,44015,10,5,34,3,676,2,4,1
1,44015,10,6,39,1,538,7,5,8
1,44015,10,7,1,3,572,1,3,7
1,44015,10,8,26,1,797,1,3,2
1,44015,11,1,13,3,580,2,4,8
1,44015,11,2,7,3,988,1,5,7
1,44015,11,3,20,3,970,2,8,6
1,44015,11,4,4,1,1461,3,7,1
1,44015,11,5,36,3,1090,4,2,1
1,44015,11,6,43,3,742,6,7,8
1,44015,11,7,37,3,1083,5,7,8
1,44015,11,8,25,1,2271,1,2,3
1,44015,12,1,46,1,646,7,8,6
1,44015,12,2,28,3,748,2,3,1
1,44015,12,3,6,1,841,7,3,1
1,44015,12,4,35,2,806,4,1,2
1,44015,12,5,10,1,735,5,7,1
1,44015,12,6,17,1,703,8,2,4
1,44015,12,7,41,2,1044,8,5,7
1,44015,12,8,24,3,1422,8,6,2
1,44016,1,1,16,3,2040,4,8,2
1,44016,1,2,35,2,978,4,1,2
1,44016,1,3,8,1,1103,1,7,5
1,44016,1,4,21,2,1122,6,2,8
1,44016,1,5,28,3,1396,2,3,1
1,44016,1,6,3,3,1163,3,1,7
1,44016,1,7,40,2,1544,7,8,5
1,44016,1,8,43,2,1065,6,7,8
1,44016,2,1,24,3,975,8,6,2
1,44016,2,2,26,3,1392,1,3,2
1,44016,2,3,10,3,1125,5,7,1
1,44016,2,4,37,2,1952,5,7,8
1,44016,2,5,6,1,1183,7,3,1
1,44016,2,6,13,3,1061,2,4,8
1,44016,2,7,33,2,1365,2,1,4
1,44016,2,8,47,3,1134,8,6,7
1,44016,3,1,20,3,1166,2,8,6
1,44016,3,2,15,3,1349,4,2,8
1,44016,3,3,39,3,1264,7,5,8
1,44016,3,4,7,3,2619,1,5,7
1,44016,3,5,46,1,1000,7,8,6
1,44016,3,6,36,2,1091,4,2,1
1,44016,3,7,4,2,1292,3,7,1
1,44016,3,8,27,1,1405,2,1,3
1,44016,4,1,9,2,1570,5,1,7
1,44016,4,2,34,2,1122,2,4,1
1,44016,4,3,19,1,1238,2,6,8
1,44016,4,4,48,2,1077,8,7,6
1,44016,4,5,14,2,1087,2,8,4
1,44016,4,6,41,2,2252,8,5,7
1,44016,4,7,2,2,1158,1,7,3
1,44016,4,8,29,1,1364,3,1,2
1,44016,5,1,42,2,901,8,7,5
1,44016,5,2,25,2,1063,1,2,3
1,44016,5,3,32,1,1030,1,4,2
1,44016,5,4,5,1,1076,7,1,3
1,44016,5,5,23,1,1322,8,2,6
1,44016,5,6,12,3,947,7,5,1
1,44016,5,7,45,2,1287,7,6,8
1,44016,5,8,17,2,1088,8,2,4
1,44016,6,1,38,3,901,5,8,7
1,44016,6,2,18,1,928,8,4,2
1,44016,6,3,22,3,1094,6,8,2
1,44016,6,4,30,2,1259,3,2,1
1,44016,6,5,11,2,977,7,1,5
1,44016,6,6,31,2,1023,1,2,4
1,44016,6,7,1,3,986,1,3,7
1,44016,6,8,44,2,971,6,8,7
1,44016,7,1,4,2,776,3,7,1
1,44016,7,2,43,2,812,6,7,8
1,44016,7,3,16,2,892,4,8,2
1,44016,7,4,24,2,1481,8,6,2
1,44016,7,5,42,2,910,8,7,5
1,44016,7,6,25,2,1057,1,2,3
1,44016,7,7,33,2,902,2,1,4
1,44016,7,8,10,2,1496,5,7,1
1,44016,8,1,48,2,777,8,7,6
1,44016,8,2,18,1,809,8,4,2
1,44016,8,3,35,2,950,4,1,2
1,44016,8,4,20,1,871,2,8,6
1,44016,8,5,27,2,852,2,1,3
1,44016,8,6,1,3,998,1,3,7
1,44016,8,7,12,2,1188,7,5,1
1,44016,8,8,39,3,1083,7,5,8
1,44016,9,1,34,3,898,2,4,1
1,44016,9,2,9,2,779,5,1,7
1,44016,9,3,14,2,836,2,8,4
1,44016,9,4,6,1,756,7,3,1
1,44016,9,5,26,2,1937,1,3,2
1,44016,9,6,22,1,796,6,8,2
1,44016,9,7,40,2,882,7,8,5
1,44016,9,8,45,2,1055,7,6,8
1,44016,10,1,31,2,849,1,2,4
1,44016,10,2,23,2,754,8,2,6
1,44016,10,3,3,3,879,3,1,7
1,44016,10,4,17,2,817,8,2,4
1,44016,10,5,37,3,899,5,7,8
1,44016,10,6,29,3,895,3,1,2
1,44016,10,7,46,2,981,7,8,6
1,44016,10,8,11,2,802,7,1,5
1,44016,11,1,2,2,798,1,7,3
1,44016,11,2,7,2,989,1,5,7
1,44016,11,3,28,3,914,2,3,1
1,44016,11,4,44,2,788,6,8,7
1,44016,11,5,21,2,842,6,2,8
1,44016,11,6,36,3,1265,4,2,1
1,44016,11,7,13,3,979,2,4,8
1,44016,11,8,38,2,932,5,8,7
1,44016,12,1,32,1,886,1,4,2
1,44016,12,2,15,2,1030,4,2,8
1,44016,12,3,30,2,863,3,2,1
1,44016,12,4,8,1,831,1,7,5
1,44016,12,5,5,1,878,7,1,3
1,44016,12,6,47,1,1027,8,6,7
1,44016,12,7,19,1,869,2,6,8
1,44016,12,8,41,2,919,8,5,7
1,44019,1,1,21,2,2461,6,2,8
1,44019,1,2,28,3,1800,2,3,1
1,44019,1,3,12,3,841,7,5,1
1,44019,1,4,39,2,1044,7,5,8
1,44019,1,5,34,3,987,2,4,1
1,44019,1,6,6,1,719,7,3,1
1,44019,1,7,17,2,929,8,2,4
1,44019,1,8,43,1,765,6,7,8
1,44019,2,1,7,1,566,1,5,7
1,44019,2,2,38,1,740,5,8,7
1,44019,2,3,29,2,831,3,1,2
1,44019,2,4,1,1,528,1,3,7
1,44019,2,5,31,1,723,1,2,4
1,44019,2,6,16,3,776,4,8,2
1,44019,2,7,46,3,1135,7,8,6
1,44019,2,8,24,3,459,8,6,2
1,44019,3,1,5,2,452,7,1,3
1,44019,3,2,45,1,602,7,6,8
1,44019,3,3,32,1,998,1,4,2
1,44019,3,4,20,2,1782,2,8,6
1,44019,3,5,18,3,514,8,4,2
1,44019,3,6,11,2,566,7,1,5
1,44019,3,7,41,2,1642,8,5,7
1,44019,3,8,30,3,843,3,2,1
1,44019,4,1,22,3,678,6,8,2
1,44019,4,2,3,2,454,3,1,7
1,44019,4,3,25,1,587,1,2,3
1,44019,4,4,15,3,936,4,2,8
1,44019,4,5,33,2,1329,2,1,4
1,44019,4,6,48,2,770,8,7,6
1,44019,4,7,42,3,482,8,7,5
1,44019,4,8,9,2,499,5,1,7
1,44019,5,1,13,1,813,2,4,8
1,44019,5,2,36,3,436,4,2,1
1,44019,5,3,10,3,434,5,7,1
1,44019,5,4,44,1,447,6,8,7
1,44019,5,5,23,2,564,8,2,6
1,44019,5,6,26,1,420,1,3,2
1,44019,5,7,40,3,499,7,8,5
1,44019,5,8,4,3,403,3,7,1
1,44019,6,1,27,2,690,2,1,3
1,44019,6,2,19,1,310,2,6,8
1,44019,6,3,37,1,648,5,7,8
1,44019,6,4,47,3,469,8,6,7
1,44019,6,5,2,1,392,1,7,3
1,44019,6,6,14,1,373,2,8,4
1,44019,6,7,35,3,819,4,1,2
1,44019,6,8,8,1,355,1,7,5
1,44019,7,1,25,1,514,1,2,3
1,44019,7,2,4,3,432,3,7,1
1,44019,7,3,44,1,519,6,8,7
1,44019,7,4,16,3,426,4,8,2
1,44019,7,5,40,2,799,7,8,5
1,44019,7,6,34,3,542,2,4,1
1,44019,7,7,10,3,713,5,7,1
1,44019,7,8,20,1,323,2,8,6
1,44019,8,1,31,1,375,1,2,4
1,44019,8,2,43,1,512,6,7,8
1,44019,8,3,3,2,381,3,1,7
1,44019,8,4,42,3,405,8,7,5
1,44019,8,5,12,3,387,7,5,1
1,44019,8,6,19,1,289,2,6,8
1,44019,8,7,13,1,358,2,4,8
1,44019,8,8,27,2,505,2,1,3
1,44019,9,1,18,3,641,8,4,2
1,44019,9,2,37,2,1506,5,7,8
1,44019,9,3,26,1,826,1,3,2
1,44019,9,4,9,2,602,5,1,7
1,44019,9,5,32,1,468,1,4,2
1,44019,9,6,5,2,419,7,1,3
1,44019,9,7,23,2,402,8,2,6
1,44019,9,8,46,3,380,7,8,6
1,44019,10,1,22,3,462,6,8,2
1,44019,10,2,38,3,727,5,8,7
1,44019,10,3,35,2,402,4,1,2
1,44019,10,4,48,3,659,8,7,6
1,44019,10,5,7,1,332,1,5,7
1,44019,10,6,15,2,503,4,2,8
1,44019,10,7,6,3,431,7,3,1
1,44019,10,8,30,3,464,3,2,1
1,44019,11,1,47,2,785,8,6,7
1,44019,11,2,8,1,293,1,7,5
1,44019,11,3,14,1,364,2,8,4
1,44019,11,4,29,2,512,3,1,2
1,44019,11,5,2,1,382,1,7,3
1,44019,11,6,36,3,361,4,2,1
1,44019,11,7,21,2,373,6,2,8
1,44019,11,8,39,3,914,7,5,8
1,44019,12,1,45,2,643,7,6,8
1,44019,12,2,33,2,447,2,1,4
1,44019,12,3,24,3,434,8,6,2
1,44019,12,4,1,1,300,1,3,7
1,44019,12,5,41,2,404,8,5,7
1,44019,12,6,28,3,374,2,3,1
1,44019,12,7,11,2,380,7,1,5
1,44019,12,8,17,2,487,8,2,4
1,46,1,1,11,2,3521,7,1,5
1,46,1,2,5,1,1347,7,1,3
1,46,1,3,26,1,1092,1,3,2
1,46,1,4,41,3,633,8,5,7
1,46,1,5,21,2,1497,6,2,8
1,46,1,6,13,3,593,2,4,8
1,46,1,7,34,3,902,2,4,1
1,46,1,8,48,3,2157,8,7,6
1,46,2,1,30,1,1010,3,2,1
1,46,2,2,20,2,563,2,8,6
1,46,2,3,4,2,460,3,7,1
1,46,2,4,8,1,893,1,7,5
1,46,2,5,40,2,1962,7,8,5
1,46,2,6,32,1,839,1,4,2
1,46,2,7,47,2,1205,8,6,7
1,46,2,8,16,2,1350,4,8,2
1,46,3,1,27,3,792,2,1,3
1,46,3,2,38,2,1132,5,8,7
1,46,3,3,33,2,877,2,1,4
1,46,3,4,2,2,590,1,7,3
1,46,3,5,45,1,1964,7,6,8
1,46,3,6,10,3,664,5,7,1
1,46,3,7,23,3,3136,8,2,6
1,46,3,8,18,2,1535,8,4,2
1,46,4,1,29,1,814,3,1,2
1,46,4,2,39,1,1259,7,5,8
1,46,4,3,15,3,506,4,2,8
1,46,4,4,22,2,934,6,8,2
1,46,4,5,1,3,750,1,3,7
1,46,4,6,12,3,1374,7,5,1
1,46,4,7,44,3,1571,6,8,7
1,46,4,8,36,1,1834,4,2,1
1,46,5,1,24,2,1097,8,6,2
1,46,5,2,9,2,755,5,1,7
1,46,5,3,31,1,691,1,2,4
1,46,5,4,14,2,635,2,8,4
1,46,5,5,43,2,734,6,7,8
1,46,5,6,37,3,1819,5,7,8
1,46,5,7,25,3,917,1,2,3
1,46,5,8,6,1,576,7,3,1
1,46,6,1,35,2,676,4,1,2
1,46,6,2,17,1,541,8,2,4
1,46,6,3,19,3,655,2,6,8
1,46,6,4,46,1,685,7,8,6
1,46,6,5,42,1,1464,8,7,5
1,46,6,6,7,3,684,1,5,7
1,46,6,7,3,3,526,3,1,7
1,46,6,8,28,1,1026,2,3,1
1,46,7,1,1,3,588,1,3,7
1,46,7,2,37,2,738,5,7,8
1,46,7,3,45,1,653,7,6,8
1,46,7,4,34,3,1049,2,4,1
1,46,7,5,10,3,1069,5,7,1
1,46,7,6,29,1,824,3,1,2
1,46,7,7,24,3,2215,8,6,2
1,46,7,8,13,3,588,2,4,8
1,46,8,1,22,2,525,6,8,2
1,46,8,2,17,1,545,8,2,4
1,46,8,3,33,3,825,2,1,4
1,46,8,4,39,2,971,7,5,8
1,46,8,5,3,3,625,3,1,7
1,46,8,6,27,3,1331,2,1,3
1,46,8,7,43,2,872,6,7,8
1,46,8,8,12,1,486,7,5,1
1,46,9,1,6,1,464,7,3,1
1,46,9,2,47,2,1013,8,6,7
1,46,9,3,8,1,790,1,7,5
1,46,9,4,31,1,970,1,2,4
1,46,9,5,18,1,545,8,4,2
1,46,9,6,25,3,584,1,2,3
1,46,9,7,41,2,1061,8,5,7
1,46,9,8,21,2,1011,6,2,8
1,46,10,1,30,1,815,3,2,1
1,46,10,2,42,1,1470,8,7,5
1,46,10,3,4,2,587,3,7,1
1,46,10,4,7,3,882,1,5,7
1,46,10,5,16,2,652,4,8,2
1,46,10,6,35,1,1267,4,1,2
1,46,10,7,19,3,565,2,6,8
1,46,10,8,46,3,1132,7,8,6
1,46,11,1,20,1,723,2,8,6
1,46,11,2,2,2,1339,1,7,3
1,46,11,3,48,1,876,8,7,6
1,46,11,4,9,3,654,5,1,7
1,46,11,5,26,1,1444,1,3,2
1,46,11,6,14,2,756,2,8,4
1,46,11,7,32,1,757,1,4,2
1,46,11,8,40,3,1025,7,8,5
1,46,12,1,44,3,865,6,8,7
1,46,12,2,5,1,520,7,1,3
1,46,12,3,28,3,803,2,3,1
1,46,12,4,15,3,508,4,2,8
1,46,12,5,38,2,1809,5,8,7
1,46,12,6,23,2,865,8,2,6
1,46,12,7,36,1,843,4,2,1
1,46,12,8,11,2,1378,7,1,5
1,47,1,1,27,3,2309,2,1,3
1,47,1,2,34,3,690,2,4,1
1,47,1,3,18,1,734,8,4,2
1,47,1,4,19,3,583,2,6,8
1,47,1,5,12,3,866,7,5,1
1,47,1,6,3,3,520,3,1,7
1,47,1,7,37,3,554,5,7,8
1,47,1,8,43,3,552,6,7,8
1,47,2,1,22,1,902,6,8,2
1,47,2,2,5,1,610,7,1,3
1,47,2,3,16,2,585,4,8,2
1,47,2,4,36,3,569,4,2,1
1,47,2,5,9,2,810,5,1,7
1,47,2,6,46,2,513,7,8,6
1,47,2,7,41,1,1101,8,5,7
1,47,2,8,29,1,951,3,1,2
1,47,3,1,44,2,533,6,8,7
1,47,3,2,31,1,645,1,2,4
1,47,3,3,26,2,514,1,3,2
1,47,3,4,23,1,627,8,2,6
1,47,3,5,10,1,880,5,7,1
1,47,3,6,39,3,446,7,5,8
1,47,3,7,1,3,435,1,3,7
1,47,3,8,17,1,464,8,2,4
1,47,4,1,6,1,430,7,3,1
1,47,4,2,11,2,853,7,1,5
1,47,4,3,15,3,397,4,2,8
1,47,4,4,47,1,382,8,6,7
1,47,4,5,35,2,1064,4,1,2
1,47,4,6,40,2,455,7,8,5
1,47,4,7,24,1,352,8,6,2
1,47,4,8,30,2,1964,3,2,1
1,47,5,1,32,1,883,1,4,2
1,47,5,2,7,1,1037,1,5,7
1,47,5,3,45,2,585,7,6,8
1,47,5,4,25,1,1065,1,2,3
1,47,5,5,38,2,373,5,8,7
1,47,5,6,21,3,494,6,2,8
1,47,5,7,14,2,589,2,8,4
1,47,5,8,4,2,480,3,7,1
1,47,6,1,13,3,456,2,4,8
1,47,6,2,42,1,328,8,7,5
1,47,6,3,8,3,843,1,7,5
1,47,6,4,28,2,549,2,3,1
1,47,6,5,48,2,361,8,7,6
1,47,6,6,2,2,380,1,7,3
1,47,6,7,33,3,767,2,1,4
1,47,6,8,20,2,384,2,8,6
1,47,7,1,25,3,519,1,2,3
1,47,7,2,32,1,776,1,4,2
1,47,7,3,15,3,509,4,2,8
1,47,7,4,4,2,310,3,7,1
1,47,7,5,43,2,372,6,7,8
1,47,7,6,19,3,358,2,6,8
1,47,7,7,10,2,349,5,7,1
1,47,7,8,38,2,497,5,8,7
1,47,8,1,30,2,949,3,2,1
1,47,8,2,18,1,380,8,4,2
1,47,8,3,9,3,527,5,1,7
1,47,8,4,34,3,735,2,4,1
1,47,8,5,47,1,489,8,6,7
1,47,8,6,1,3,425,1,3,7
1,47,8,7,37,3,644,5,7,8
1,47,8,8,21,3,560,6,2,8
1,47,9,1,27,1,522,2,1,3
1,47,9,2,11,1,497,7,1,5
1,47,9,3,17,1,378,8,2,4
1,47,9,4,44,2,440,6,8,7
1,47,9,5,2,2,389,1,7,3
1,47,9,6,20,2,361,2,8,6
1,47,9,7,36,2,1127,4,2,1
1,47,9,8,40,2,407,7,8,5
1,47,10,1,22,2,323,6,8,2
1,47,10,2,16,2,344,4,8,2
1,47,10,3,35,1,422,4,1,2
1,47,10,4,12,2,362,7,5,1
1,47,10,5,48,1,423,8,7,6
1,47,10,6,26,3,596,1,3,2
1,47,10,7,6,1,289,7,3,1
1,47,10,8,39,3,410,7,5,8
1,47,11,1,29,3,453,3,1,2
1,47,11,2,41,1,350,8,5,7
1,47,11,3,46,1,284,7,8,6
1,47,11,4,7,2,389,1,5,7
1,47,11,5,33,2,858,2,1,4
1,47,11,6,24,1,548,8,6,2
1,47,11,7,14,2,353,2,8,4
1,47,11,8,3,3,377,3,1,7
1,47,12,1,8,1,931,1,7,5
1,47,12,2,45,3,385,7,6,8
1,47,12,3,42,1,350,8,7,5
1,47,12,4,28,1,676,2,3,1
1,47,12,5,5,1,553,7,1,3
1,47,12,6,23,1,535,8,2,6
1,47,12,7,31,3,382,1,2,4
1,47,12,8,13,2,485,2,4,8
1,48,1,1,14,1,14958,2,8,4
1,48,1,2,35,1,1414,4,1,2
1,48,1,3,41,3,1756,8,5,7
1,48,1,4,45,1,2051,7,6,8
1,48,1,5,6,1,1502,7,3,1
1,48,1,6,12,1,778,7,5,1
1,48,1,7,23,2,2146,8,2,6
1,48,1,8,25,2,1512,1,2,3
1,48,2,1,42,2,1074,8,7,5
1,48,2,2,11,2,501,7,1,5
1,48,2,3,18,1,936,8,4,2
1,48,2,4,21,2,929,6,2,8
1,48,2,5,43,2,896,6,7,8
1,48,2,6,27,1,981,2,1,3
1,48,2,7,4,1,1141,3,7,1
1,48,2,8,32,1,1022,1,4,2
1,48,3,1,28,1,522,2,3,1
1,48,3,2,3,1,642,3,1,7
1,48,3,3,15,3,931,4,2,8
1,48,3,4,48,2,1090,8,7,6
1,48,3,5,20,1,968,2,8,6
1,48,3,6,39,2,1069,7,5,8
1,48,3,7,36,2,1061,4,2,1
1,48,3,8,10,3,1454,5,7,1
1,48,4,1,46,3,1050,7,8,6
1,48,4,2,29,3,867,3,1,2
1,48,4,3,24,2,1030,8,6,2
1,48,4,4,16,2,1689,4,8,2
1,48,4,5,1,3,1093,1,3,7
1,48,4,6,31,3,1494,1,2,4
1,48,4,7,8,1,1369,1,7,5
1,48,4,8,40,2,1127,7,8,5
1,48,5,1,9,3,1144,5,1,7
1,48,5,2,47,2,825,8,6,7
1,48,5,3,17,2,1097,8,2,4
1,48,5,4,2,2,973,1,7,3
1,48,5,5,38,3,1055,5,8,7
1,48,5,6,19,3,1065,2,6,8
1,48,5,7,33,2,2165,2,1,4
1,48,5,8,30,3,1107,3,2,1
1,48,6,1,7,3,882,1,5,7
1,48,6,2,37,3,846,5,7,8
1,48,6,3,13,3,876,2,4,8
1,48,6,4,44,3,881,6,8,7
1,48,6,5,34,3,821,2,4,1
1,48,6,6,26,3,842,1,3,2
1,48,6,7,5,1,965,7,1,3
1,48,6,8,22,3,890,6,8,2
1,48,7,1,41,3,921,8,5,7
1,48,7,2,35,2,852,4,1,2
1,48,7,3,24,3,1254,8,6,2
1,48,7,4,9,2,1058,5,1,7
1,48,7,5,47,3,1230,8,6,7
1,48,7,6,28,1,1020,2,3,1
1,48,7,7,6,1,1183,7,3,1
1,48,7,8,14,2,1621,2,8,4
1,48,8,1,31,3,865,1,2,4
1,48,8,2,42,3,927,8,7,5
1,48,8,3,2,2,821,1,7,3
1,48,8,4,15,3,1116,4,2,8
1,48,8,5,44,3,1083,6,8,7
1,48,8,6,22,3,1209,6,8,2
1,48,8,7,8,3,1042,1,7,5
1,48,8,8,29,3,942,3,1,2
1,48,9,1,1,3,926,1,3,7
1,48,9,2,37,3,500,5,7,8
1,48,9,3,30,2,940,3,2,1
1,48,9,4,32,3,1068,1,4,2
1,48,9,5,12,1,1006,7,5,1
1,48,9,6,17,1,985,8,2,4
1,48,9,7,21,3,877,6,2,8
1,48,9,8,48,1,910,8,7,6
1,48,10,1,11,1,993,7,1,5
1,48,10,2,23,2,864,8,2,6
1,48,10,3,45,1,789,7,6,8
1,48,10,4,5,1,1606,7,1,3
1,48,10,5,27,1,1061,2,1,3
1,48,10,6,16,2,1033,4,8,2
1,48,10,7,40,2,928,7,8,5
1,48,10,8,36,3,1145,4,2,1
1,48,11,1,43,3,921,6,7,8
1,48,11,2,13,3,1108,2,4,8
1,48,11,3,19,3,442,2,6,8
1,48,11,4,38,1,1003,5,8,7
1,48,11,5,33,2,1059,2,1,4
1,48,11,6,26,3,1020,1,3,2
1,48,11,7,7,3,1041,1,5,7
1,48,11,8,4,2,1151,3,7,1
1,48,12,1,25,3,1281,1,2,3
1,48,12,2,18,1,1003,8,4,2
1,48,12,3,39,3,805,7,5,8
1,48,12,4,3,3,749,3,1,7
1,48,12,5,34,3,1968,2,4,1
1,48,12,6,10,3,871,5,7,1
1,48,12,7,20,1,1176,2,8,6
1,48,12,8,46,1,1513,7,8,6
2,27,1,1,11,1,3387,7,1,5
2,27,1,2,45,3,509,7,6,8
2,27,1,3,33,1,938,2,1,4
2,27,1,4,26,3,431,1,3,2
2,27,1,5,22,3,483,6,8,2
2,27,1,6,42,1,599,8,7,5
2,27,1,7,1,3,612,1,3,7
2,27,1,8,17,2,884,8,2,4
2,27,2,1,10,3,461,5,7,1
2,27,2,2,21,2,318,6,2,8
2,27,2,3,44,3,368,6,8,7
2,27,2,4,40,1,524,7,8,5
2,27,2,5,6,1,628,7,3,1
2,27,2,6,30,2,360,3,2,1
2,27,2,7,31,1,410,1,2,4
2,27,2,8,13,3,402,2,4,8
2,27,3,1,25,2,332,1,2,3
2,27,3,2,43,2,377,6,7,8
2,27,3,3,8,1,304,1,7,5
2,27,3,4,35,3,603,4,1,2
2,27,3,5,24,3,320,8,6,2
2,27,3,6,39,3,322,7,5,8
2,27,3,7,3,3,1490,3,1,7
2,27,3,8,15,2,425,4,2,8
2,27,4,1,47,3,362,8,6,7
2,27,4,2,34,3,337,2,4,1
2,27,4,3,14,2,634,2,8,4
2,27,4,4,38,2,335,5,8,7
2,27,4,5,5,1,327,7,1,3
2,27,4,6,28,1,306,2,3,1
2,27,4,7,12,3,333,7,5,1
2,27,4,8,19,1,286,2,6,8
2,27,5,1,27,1,336,2,1,3
2,27,5,2,36,2,314,4,2,1
2,27,5,3,46,2,1068,7,8,6
2,27,5,4,18,3,326,8,4,2
2,27,5,5,4,2,438,3,7,1
2,27,5,6,9,2,458,5,1,7
2,27,5,7,23,2,322,8,2,6
2,27,5,8,37,3,314,5,7,8
2,27,6,1,7,1,329,1,5,7
2,27,6,2,16,2,279,4,8,2
2,27,6,3,32,1,291,1,4,2
2,27,6,4,20,1,287,2,8,6
2,27,6,5,41,1,275,8,5,7
2,27,6,6,48,1,1511,8,7,6
2,27,6,7,2,2,313,1,7,3
2,27,6,8,29,3,265,3,1,2
2,27,7,1,33,2,321,2,1,4
2,27,7,2,8,1,295,1,7,5
2,27,7,3,37,3,257,5,7,8
2,27,7,4,17,1,292,8,2,4
2,27,7,5,44,3,437,6,8,7
2,27,7,6,26,3,313,1,3,2
2,27,7,7,3,3,273,3,1,7
2,27,7,8,24,3,286,8,6,2
2,27,8,1,43,3,878,6,7,8
2,27,8,2,10,3,282,5,7,1
2,27,8,3,34,3,243,2,4,1
2,27,8,4,20,1,224,2,8,6
2,27,8,5,39,3,258,7,5,8
2,27,8,6,6,1,254,7,3,1
2,27,8,7,28,1,299,2,3,1
2,27,8,8,16,2,319,4,8,2
2,27,9,1,12,3,251,7,5,1
2,27,9,2,47,3,344,8,6,7
2,27,9,3,42,1,281,8,7,5
2,27,9,4,30,2,292,3,2,1
2,27,9,5,1,3,229,1,3,7
2,27,9,6,21,2,252,6,2,8
2,27,9,7,31,1,258,1,2,4
2,27,9,8,18,3,656,8,4,2
2,27,10,1,45,1,332,7,6,8
2,27,10,2,38,2,285,5,8,7
2,27,10,3,22,3,393,6,8,2
2,27,10,4,2,2,367,1,7,3
2,27,10,5,11,1,577,7,1,5
2,27,10,6,15,2,703,4,2,8
2,27,10,7,36,3,371,4,2,1
2,27,10,8,25,1,260,1,2,3
2,27,11,1,46,3,461,7,8,6
2,27,11,2,32,1,223,1,4,2
2,27,11,3,9,2,229,5,1,7
2,27,11,4,41,1,258,8,5,7
2,27,11,5,27,1,304,2,1,3
2,27,11,6,4,2,213,3,7,1
2,27,11,7,23,2,956,8,2,6
2,27,11,8,13,3,368,2,4,8
2,27,12,1,29,3,248,3,1,2
2,27,12,2,35,3,1243,4,1,2
2,27,12,3,48,1,423,8,7,6
2,27,12,4,14,2,303,2,8,4
2,27,12,5,19,1,387,2,6,8
2,27,12,6,5,1,330,7,1,3
2,27,12,7,40,2,274,7,8,5
2,27,12,8,7,3,303,1,5,7
2,28,1,1,6,3,2019,7,3,1
2,28,1,2,9,2,1460,5,1,7
2,28,1,3,43,2,730,6,7,8
2,28,1,4,26,3,452,1,3,2
2,28,1,5,16,2,509,4,8,2
2,28,1,6,41,1,416,8,5,7
2,28,1,7,22,3,1140,6,8,2
2,28,1,8,34,3,741,2,4,1
2,28,2,1,28,1,441,2,3,1
2,28,2,2,32,1,1452,1,4,2
2,28,2,3,39,3,601,7,5,8
2,28,2,4,15,3,1266,4,2,8
2,28,2,5,45,1,513,7,6,8
2,28,2,6,10,3,1236,5,7,1
2,28,2,7,20,2,761,2,8,6
2,28,2,8,3,3,536,3,1,7
2,28,3,1,25,2,326,1,2,3
2,28,3,2,1,3,472,1,3,7
2,28,3,3,36,2,530,4,2,1
2,28,3,4,11,2,1019,7,1,5
2,28,3,5,21,2,556,6,2,8
2,28,3,6,42,1,452,8,7,5
2,28,3,7,13,3,439,2,4,8
2,28,3,8,47,3,654,8,6,7
2,28,4,1,38,2,869,5,8,7
2,28,4,2,33,2,552,2,1,4
2,28,4,3,29,3,381,3,1,2
2,28,4,4,5,1,345,7,1,3
2,28,4,5,8,1,256,1,7,5
2,28,4,6,14,2,428,2,8,4
2,28,4,7,48,1,230,8,7,6
2,28,4,8,23,2,837,8,2,6
2,28,5,1,17,1,409,8,2,4
2,28,5,2,40,2,272,7,8,5
2,28,5,3,35,2,284,4,1,2
2,28,5,4,19,1,336,2,6,8
2,28,5,5,46,2,386,7,8,6
2,28,5,6,27,1,231,2,1,3
2,28,5,7,12,3,270,7,5,1
2,28,5,8,4,2,575,3,7,1
2,28,6,1,18,1,435,8,4,2
2,28,6,2,44,3,962,6,8,7
2,28,6,3,30,2,366,3,2,1
2,28,6,4,2,2,451,1,7,3
2,28,6,5,31,2,516,1,2,4
2,28,6,6,37,3,1459,5,7,8
2,28,6,7,7,1,458,1,5,7
2,28,6,8,24,3,277,8,6,2
2,28,7,1,36,3,446,4,2,1
2,28,7,2,47,1,316,8,6,7
2,28,7,3,39,3,346,7,5,8
2,28,7,4,5,1,209,7,1,3
2,28,7,5,15,3,1303,4,2,8
2,28,7,6,20,1,745,2,8,6
2,28,7,7,12,3,438,7,5,1
2,28,7,8,28,1,322,2,3,1
2,28,8,1,40,2,483,7,8,5
2,28,8,2,46,2,240,7,8,6
2,28,8,3,30,2,273,3,2,1
2,28,8,4,9,2,291,5,1,7
2,28,8,5,3,3,299,3,1,7
2,28,8,6,32,3,371,1,4,2
2,28,8,7,13,3,418,2,4,8
2,28,8,8,24,3,549,8,6,2
2,28,9,1,10,3,332,5,7,1
2,28,9,2,6,1,138,7,3,1
2,28,9,3,17,1,321,8,2,4
2,28,9,4,48,1,216,8,7,6
2,28,9,5,42,1,259,8,7,5
2,28,9,6,25,2,349,1,2,3
2,28,9,7,21,2,228,6,2,8
2,28,9,8,31,2,296,1,2,4
2,28,10,1,29,3,9,3,1,2
2,28,10,2,35,2,349,4,1,2
2,28,10,3,8,1,258,1,7,5
2,28,10,4,38,2,402,5,8,7
2,28,10,5,19,1,235,2,6,8
2,28,10,6,14,2,395,2,8,4
2,28,10,7,45,1,564,7,6,8
2,28,10,8,1,3,327,1,3,7
2,28,11,1,43,2,277,6,7,8
2,28,11,2,26,3,190,1,3,2
2,28,11,3,18,1,3418,8,4,2
2,28,11,4,7,1,518,1,5,7
2,28,11,5,2,2,304,1,7,3
2,28,11,6,34,3,415,2,4,1
2,28,11,7,37,3,721,5,7,8
2,28,11,8,23,2,256,8,2,6
2,28,12,1,33,2,210,2,1,4
2,28,12,2,4,3,376,3,7,1
2,28,12,3,44,2,392,6,8,7
2,28,12,4,16,2,3299,4,8,2
2,28,12,5,11,2,286,7,1,5
2,28,12,6,22,2,278,6,8,2
2,28,12,7,27,1,271,2,1,3
2,28,12,8,41,1,4346,8,5,7
2,29,1,1,5,1,975,7,1,3
2,29,1,2,38,2,3046,5,8,7
2,29,1,3,21,2,661,6,2,8
2,29,1,4,48,2,1617,8,7,6
2,29,1,5,8,1,3454,1,7,5
2,29,1,6,32,1,890,1,4,2
2,29,1,7,26,1,679,1,3,2
2,29,1,8,14,2,873,2,8,4
2,29,2,1,9,2,471,5,1,7
2,29,2,2,39,3,931,7,5,8
2,29,2,3,16,2,687,4,8,2
2,29,2,4,23,2,858,8,2,6
2,29,2,5,1,3,951,1,3,7
2,29,2,6,27,1,819,2,1,3
2,29,2,7,34,3,459,2,4,1
2,29,2,8,44,3,912,6,8,7
2,29,3,1,6,1,376,7,3,1
2,29,3,2,35,2,444,4,1,2
2,29,3,3,30,2,392,3,2,1
2,29,3,4,20,1,316,2,8,6
2,29,3,5,46,1,340,7,8,6
2,29,3,6,7,1,373,1,5,7
2,29,3,7,41,1,321,8,5,7
2,29,3,8,18,1,272,8,4,2
2,29,4,1,24,3,821,8,6,2
2,29,4,2,15,3,546,4,2,8
2,29,4,3,2,2,624,1,7,3
2,29,4,4,31,1,901,1,2,4
2,29,4,5,29,3,546,3,1,2
2,29,4,6,42,1,670,8,7,5
2,29,4,7,45,1,657,7,6,8
2,29,4,8,12,3,604,7,5,1
2,29,5,1,17,1,743,8,2,4
2,29,5,2,22,3,411,6,8,2
2,29,5,3,11,2,632,7,1,5
2,29,5,4,25,2,273,1,2,3
2,29,5,5,3,3,281,3,1,7
2,29,5,6,37,3,408,5,7,8
2,29,5,7,36,3,1137,4,2,1
2,29,5,8,47,3,655,8,6,7
2,29,6,1,4,2,1024,3,7,1
2,29,6,2,40,2,347,7,8,5
2,29,6,3,19,1,450,2,6,8
2,29,6,4,43,2,308,6,7,8
2,29,6,5,33,2,306,2,1,4
2,29,6,6,10,3,342,5,7,1
2,29,6,7,28,1,671,2,3,1
2,29,6,8,13,3,275,2,4,8
2,29,7,1,37,3,258,5,7,8
2,29,7,2,5,1,349,7,1,3
2,29,7,3,30,2,322,3,2,1
2,29,7,4,22,3,291,6,8,2
2,29,7,5,8,1,1143,1,7,5
2,29,7,6,15,3,525,4,2,8
2,29,7,7,31,1,289,1,2,4
2,29,7,8,44,3,364,6,8,7
2,29,8,1,18,1,274,8,4,2
2,29,8,2,1,3,333,1,3,7
2,29,8,3,21,2,402,6,2,8
2,29,8,4,46,1,351,7,8,6
2,29,8,5,27,1,679,2,1,3
2,29,8,6,41,1,386,8,5,7
2,29,8,7,10,3,338,5,7,1
2,29,8,8,32,1,305,1,4,2
2,29,9,1,39,3,313,7,5,8
2,29,9,2,14,2,244,2,8,4
2,29,9,3,7,1,298,1,5,7
2,29,9,4,20,2,301,2,8,6
2,29,9,5,6,1,249,7,3,1
2,29,9,6,47,1,2303,8,6,7
2,29,9,7,29,3,268,3,1,2
2,29,9,8,35,2,598,4,1,2
2,29,10,1,11,2,347,7,1,5
2,29,10,2,40,2,265,7,8,5
2,29,10,3,28,1,297,2,3,1
2,29,10,4,13,3,278,2,4,8
2,29,10,5,43,3,304,6,7,8
2,29,10,6,36,2,298,4,2,1
2,29,10,7,4,2,783,3,7,1
2,29,10,8,19,3,276,2,6,8
2,29,11,1,12,2,245,7,5,1
2,29,11,2,26,3,246,1,3,2
2,29,11,3,42,1,304,8,7,5
2,29,11,4,16,2,239,4,8,2
2,29,11,5,23,1,280,8,2,6
2,29,11,6,33,2,841,2,1,4
2,29,11,7,48,1,284,8,7,6
2,29,11,8,3,3,286,3,1,7
2,29,12,1,9,2,615,5,1,7
2,29,12,2,38,2,248,5,8,7
2,29,12,3,25,2,229,1,2,3
2,29,12,4,34,3,261,2,4,1
2,29,12,5,24,1,319,8,6,2
2,29,12,6,2,2,263,1,7,3
2,29,12,7,17,1,242,8,2,4
2,29,12,8,45,3,252,7,6,8
2,30,1,1,19,1,699,2,6,8
2,30,1,2,35,3,1103,4,1,2
2,30,1,3,28,1,746,2,3,1
2,30,1,4,48,3,1204,8,7,6
2,30,1,5,8,2,1088,1,7,5
2,30,1,6,14,2,887,2,8,4
2,30,1,7,37,3,512,5,7,8
2,30,1,8,5,1,456,7,1,3
2,30,2,1,41,1,364,8,5,7
2,30,2,2,20,1,329,2,8,6
2,30,2,3,46,2,320,7,8,6
2,30,2,4,13,3,616,2,4,8
2,30,2,5,3,3,278,3,1,7
2,30,2,6,30,2,305,3,2,1
2,30,2,7,33,1,1258,2,1,4
2,30,2,8,11,2,420,7,1,5
2,30,3,1,23,2,266,8,2,6
2,30,3,2,44,3,702,6,8,7
2,30,3,3,34,3,373,2,4,1
2,30,3,4,16,2,292,4,8,2
2,30,3,5,25,2,216,1,2,3
2,30,3,6,38,2,263,5,8,7
2,30,3,7,10,3,275,5,7,1
2,30,3,8,4,2,209,3,7,1
2,30,4,1,45,1,359,7,6,8
2,30,4,2,2,2,257,1,7,3
2,30,4,3,9,2,407,5,1,7
2,30,4,4,26,3,320,1,3,2
2,30,4,5,18,1,365,8,4,2
2,30,4,6,42,1,224,8,7,5
2,30,4,7,22,3,224,6,8,2
2,30,4,8,31,2,225,1,2,4
2,30,5,1,6,1,769,7,3,1
2,30,5,2,39,3,348,7,5,8
2,30,5,3,29,3,249,3,1,2
2,30,5,4,7,1,218,1,5,7
2,30,5,5,32,3,441,1,4,2
2,30,5,6,21,2,299,6,2,8
2,30,5,7,15,2,448,4,2,8
2,30,5,8,47,1,249,8,6,7
2,30,6,1,24,3,253,8,6,2
2,30,6,2,36,3,339,4,2,1
2,30,6,3,1,3,376,1,3,7
2,30,6,4,43,2,329,6,7,8
2,30,6,5,12,3,286,7,5,1
2,30,6,6,17,1,277,8,2,4
2,30,6,7,27,1,242,2,1,3
2,30,6,8,40,2,209,7,8,5
2,30,7,1,7,1,277,1,5,7
2,30,7,2,41,1,299,8,5,7
2,30,7,3,33,1,490,2,1,4
2,30,7,4,19,1,465,2,6,8
2,30,7,5,14,2,256,2,8,4
2,30,7,6,29,3,305,3,1,2
2,30,7,7,2,2,303,1,7,3
2,30,7,8,47,3,212,8,6,7
2,30,8,1,28,1,330,2,3,1
2,30,8,2,23,2,293,8,2,6
2,30,8,3,15,3,291,4,2,8
2,30,8,4,34,3,218,2,4,1
2,30,8,5,6,1,283,7,3,1
2,30,8,6,12,3,1912,7,5,1
2,30,8,7,37,3,194,5,7,8
2,30,8,8,43,3,28,6,7,8
2,30,9,1,38,2,242,5,8,7
2,30,9,2,48,1,481,8,7,6
2,30,9,3,1,3,1552,1,3,7
2,30,9,4,30,2,257,3,2,1
2,30,9,5,35,2,217,4,1,2
2,30,9,6,18,2,250,8,4,2
2,30,9,7,11,2,458,7,1,5
2,30,9,8,24,3,450,8,6,2
2,30,10,1,17,1,251,8,2,4
2,30,10,2,32,1,212,1,4,2
2,30,10,3,44,2,261,6,8,7
2,30,10,4,4,2,206,3,7,1
2,30,10,5,39,3,216,7,5,8
2,30,10,6,21,3,255,6,2,8
2,30,10,7,8,1,270,1,7,5
2,30,10,8,27,1,221,2,1,3
2,30,11,1,16,2,400,4,8,2
2,30,11,2,3,3,201,3,1,7
2,30,11,3,45,1,252,7,6,8
2,30,11,4,42,1,243,8,7,5
2,30,11,5,22,3,210,6,8,2
2,30,11,6,10,3,284,5,7,1
2,30,11,7,36,2,442,4,2,1
2,30,11,8,26,3,275,1,3,2
2,30,12,1,9,3,465,5,1,7
2,30,12,2,46,3,280,7,8,6
2,30,12,3,31,2,1423,1,2,4
2,30,12,4,13,1,818,2,4,8
2,30,12,5,20,1,266,2,8,6
2,30,12,6,25,2,218,1,2,3
2,30,12,7,40,2,243,7,8,5
2,30,12,8,5,2,1363,7,1,3
2,31,1,1,7,1,3204,1,5,7
2,31,1,2,44,3,492,6,8,7
2,31,1,3,24,3,1052,8,6,2
2,31,1,4,30,2,583,3,2,1
2,31,1,5,13,3,756,2,4,8
2,31,1,6,31,1,1521,1,2,4
2,31,1,7,6,1,422,7,3,1
2,31,1,8,39,3,515,7,5,8
2,31,2,1,35,2,859,4,1,2
2,31,2,2,37,3,649,5,7,8
2,31,2,3,45,1,410,7,6,8
2,31,2,4,15,3,330,4,2,8
2,31,2,5,19,2,1188,2,6,8
2,31,2,6,1,3,468,1,3,7
2,31,2,7,10,3,1534,5,7,1
2,31,2,8,26,3,507,1,3,2
2,31,3,1,18,1,418,8,4,2
2,31,3,2,43,2,265,6,7,8
2,31,3,3,42,1,485,8,7,5
2,31,3,4,20,1,411,2,8,6
2,31,3,5,27,1,490,2,1,3
2,31,3,6,11,2,1906,7,1,5
2,31,3,7,32,1,1540,1,4,2
2,31,3,8,5,1,262,7,1,3
2,31,4,1,12,3,222,7,5,1
2,31,4,2,47,3,232,8,6,7
2,31,4,3,23,1,446,8,2,6
2,31,4,4,3,3,1009,3,1,7
2,31,4,5,40,1,253,7,8,5
2,31,4,6,25,2,319,1,2,3
2,31,4,7,17,1,1702,8,2,4
2,31,4,8,33,1,385,2,1,4
2,31,5,1,22,3,237,6,8,2
2,31,5,2,34,1,226,2,4,1
2,31,5,3,38,2,562,5,8,7
2,31,5,4,4,2,237,3,7,1
2,31,5,5,29,3,271,3,1,2
2,31,5,6,46,1,217,7,8,6
2,31,5,7,16,2,336,4,8,2
2,31,5,8,8,2,854,1,7,5
2,31,6,1,48,2,282,8,7,6
2,31,6,2,2,2,323,1,7,3
2,31,6,3,28,1,512,2,3,1
2,31,6,4,41,3,295,8,5,7
2,31,6,5,14,1,287,2,8,4
2,31,6,6,36,2,385,4,2,1
2,31,6,7,21,2,214,6,2,8
2,31,6,8,9,2,262,5,1,7
2,31,7,1,19,1,318,2,6,8
2,31,7,2,45,1,846,7,6,8
2,31,7,3,40,1,223,7,8,5
2,31,7,4,7,1,529,1,5,7
2,31,7,5,33,1,246,2,1,4
2,31,7,6,17,2,1880,8,2,4
2,31,7,7,1,3,326,1,3,7
2,31,7,8,30,2,683,3,2,1
2,31,8,1,35,3,1180,4,1,2
2,31,8,2,8,2,269,1,7,5
2,31,8,3,4,2,317,3,7,1
2,31,8,4,27,1,285,2,1,3
2,31,8,5,38,2,282,5,8,7
2,31,8,6,21,2,235,6,2,8
2,31,8,7,47,3,286,8,6,7
2,31,8,8,16,3,345,4,8,2
2,31,9,1,23,2,260,8,2,6
2,31,9,2,14,2,246,2,8,4
2,31,9,3,12,3,1913,7,5,1
2,31,9,4,44,3,615,6,8,7
2,31,9,5,37,3,375,5,7,8
2,31,9,6,34,3,247,2,4,1
2,31,9,7,5,1,506,7,1,3
2,31,9,8,28,1,362,2,3,1
2,31,10,1,24,3,254,8,6,2
2,31,10,2,36,2,253,4,2,1
2,31,10,3,2,2,254,1,7,3
2,31,10,4,10,3,281,5,7,1
2,31,10,5,13,3,1046,2,4,8
2,31,10,6,41,1,297,8,5,7
2,31,10,7,46,1,283,7,8,6
2,31,10,8,26,3,476,1,3,2
2,31,11,1,9,3,2186,5,1,7
2,31,11,2,39,3,231,7,5,8
2,31,11,3,20,1,546,2,8,6
2,31,11,4,6,1,292,7,3,1
2,31,11,5,18,1,345,8,4,2
2,31,11,6,48,2,248,8,7,6
2,31,11,7,29,3,391,3,1,2
2,31,11,8,32,1,642,1,4,2
2,31,12,1,15,3,297,4,2,8
2,31,12,2,43,2,261,6,7,8
2,31,12,3,11,2,1260,7,1,5
2,31,12,4,31,1,417,1,2,4
2,31,12,5,25,2,269,1,2,3
2,31,12,6,22,3,303,6,8,2
2,31,12,7,42,1,202,8,7,5
2,31,12,8,3,3,490,3,1,7
2,34,1,1,39,3,97,7,5,8
2,34,1,2,24,3,454,8,6,2
2,34,1,3,3,3,681,3,1,7
2,34,1,4,31,2,736,1,2,4
2,34,1,5,14,2,428,2,8,4
2,34,1,6,10,3,489,5,7,1
2,34,1,7,47,1,556,8,6,7
2,34,1,8,27,1,659,2,1,3
2,34,2,1,32,1,352,1,4,2
2,34,2,2,18,3,395,8,4,2
2,34,2,3,37,3,337,5,7,8
2,34,2,4,6,1,325,7,3,1
2,34,2,5,11,2,411,7,1,5
2,34,2,6,44,3,413,6,8,7
2,34,2,7,21,2,312,6,2,8
2,34,2,8,29,3,487,3,1,2
2,34,3,1,8,1,302,1,7,5
2,34,3,2,42,1,457,8,7,5
2,34,3,3,45,1,408,7,6,8
2,34,3,4,16,2,330,4,8,2
2,34,3,5,23,2,461,8,2,6
2,34,3,6,5,1,349,7,1,3
2,34,3,7,34,3,409,2,4,1
2,34,3,8,25,2,420,1,2,3
2,34,4,1,12,3,287,7,5,1
2,34,4,2,38,2,482,5,8,7
2,34,4,3,15,3,339,4,2,8
2,34,4,4,28,1,375,2,3,1
2,34,4,5,33,2,335,2,1,4
2,34,4,6,1,3,595,1,3,7
2,34,4,7,19,1,432,2,6,8
2,34,4,8,43,2,556,6,7,8
2,34,5,1,36,3,369,4,2,1
2,34,5,2,13,3,485,2,4,8
2,34,5,3,4,2,332,3,7,1
2,34,5,4,22,3,314,6,8,2
2,34,5,5,26,3,319,1,3,2
2,34,5,6,41,1,320,8,5,7
2,34,5,7,9,2,413,5,1,7
2,34,5,8,46,1,325,7,8,6
2,34,6,1,35,2,499,4,1,2
2,34,6,2,48,2,1013,8,7,6
2,34,6,3,7,1,395,1,5,7
2,34,6,4,40,2,302,7,8,5
2,34,6,5,30,2,341,3,2,1
2,34,6,6,2,2,275,1,7,3
2,34,6,7,17,1,323,8,2,4
2,34,6,8,20,1,362,2,8,6
2,34,7,1,29,3,302,3,1,2
2,34,7,2,36,2,382,4,2,1
2,34,7,3,46,1,309,7,8,6
2,34,7,4,14,2,325,2,8,4
2,34,7,5,11,2,325,7,1,5
2,34,7,6,22,3,284,6,8,2
2,34,7,7,41,1,422,8,5,7
2,34,7,8,1,3,282,1,3,7
2,34,8,1,33,1,276,2,1,4
2,34,8,2,7,1,245,1,5,7
2,34,8,3,37,3,337,5,7,8
2,34,8,4,18,1,282,8,4,2
2,34,8,5,44,2,710,6,8,7
2,34,8,6,3,3,297,3,1,7
2,34,8,7,26,3,325,1,3,2
2,34,8,8,21,2,424,6,2,8
2,34,9,1,25,2,706,1,2,3
2,34,9,2,47,3,394,8,6,7
2,34,9,3,8,1,513,1,7,5
2,34,9,4,15,3,564,4,2,8
2,34,9,5,31,2,254,1,2,4
2,34,9,6,2,2,324,1,7,3
2,34,9,7,19,1,320,2,6,8
2,34,9,8,39,3,266,7,5,8
2,34,10,1,5,1,325,7,1,3
2,34,10,2,28,1,440,2,3,1
2,34,10,3,32,3,433,1,4,2
2,34,10,4,43,2,1063,6,7,8
2,34,10,5,10,3,356,5,7,1
2,34,10,6,16,2,284,4,8,2
2,34,10,7,42,1,385,8,7,5
2,34,10,8,23,2,255,8,2,6
2,34,11,1,40,2,334,7,8,5
2,34,11,2,48,2,286,8,7,6
2,34,11,3,27,1,348,2,1,3
2,34,11,4,24,3,485,8,6,2
2,34,11,5,17,1,257,8,2,4
2,34,11,6,9,2,238,5,1,7
2,34,11,7,4,2,286,3,7,1
2,34,11,8,34,3,316,2,4,1
2,34,12,1,6,1,255,7,3,1
2,34,12,2,35,2,837,4,1,2
2,34,12,3,12,3,262,7,5,1
2,34,12,4,38,2,230,5,8,7
2,34,12,5,30,2,272,3,2,1
2,34,12,6,20,1,652,2,8,6
2,34,12,7,13,3,306,2,4,8
2,34,12,8,45,1,343,7,6,8
2,35,1,1,46,2,1643,7,8,6
2,35,1,2,8,1,380,1,7,5
2,35,1,3,19,3,1735,2,6,8
2,35,1,4,16,3,1031,4,8,2
2,35,1,5,30,1,447,3,2,1
2,35,1,6,2,1,1166,1,7,3
2,35,1,7,40,3,1133,7,8,5
2,35,1,8,34,1,741,2,4,1
2,35,2,1,37,3,215,5,7,8
2,35,2,2,14,3,871,2,8,4
2,35,2,3,35,2,288,4,1,2
2,35,2,4,24,3,692,8,6,2
2,35,2,5,10,3,565,5,7,1
2,35,2,6,29,3,215,3,1,2
2,35,2,7,47,3,592,8,6,7
2,35,2,8,5,1,516,7,1,3
2,35,3,1,9,2,539,5,1,7
2,35,3,2,1,3,382,1,3,7
2,35,3,3,44,3,286,6,8,7
2,35,3,4,20,1,417,2,8,6
2,35,3,5,17,1,643,8,2,4
2,35,3,6,38,2,702,5,8,7
2,35,3,7,32,1,671,1,4,2
2,35,3,8,26,3,397,1,3,2
2,35,4,1,42,1,299,8,7,5
2,35,4,2,25,2,289,1,2,3
2,35,4,3,13,3,415,2,4,8
2,35,4,4,22,3,570,6,8,2
2,35,4,5,7,1,300,1,5,7
2,35,4,6,45,1,289,7,6,8
2,35,4,7,36,3,265,4,2,1
2,35,4,8,6,1,390,7,3,1
2,35,5,1,15,3,1376,4,2,8
2,35,5,2,3,3,260,3,1,7
2,35,5,3,28,1,465,2,3,1
2,35,5,4,12,1,961,7,5,1
2,35,5,5,39,3,1194,7,5,8
2,35,5,6,23,2,399,8,2,6
2,35,5,7,33,2,357,2,1,4
2,35,5,8,48,2,1029,8,7,6
2,35,6,1,27,1,528,2,1,3
2,35,6,2,43,2,268,6,7,8
2,35,6,3,31,1,295,1,2,4
2,35,6,4,18,1,504,8,4,2
2,35,6,5,21,3,1230,6,2,8
2,35,6,6,11,2,509,7,1,5
2,35,6,7,41,1,1564,8,5,7
2,35,6,8,4,2,530,3,7,1
2,35,7,1,28,1,225,2,3,1
2,35,7,2,40,2,351,7,8,5
2,35,7,3,8,1,288,1,7,5
2,35,7,4,14,2,219,2,8,4
2,35,7,5,2,2,319,1,7,3
2,35,7,6,23,2,305,8,2,6
2,35,7,7,48,2,277,8,7,6
2,35,7,8,35,3,1408,4,1,2
2,35,8,1,13,3,409,2,4,8
2,35,8,2,45,1,380,7,6,8
2,35,8,3,6,1,304,7,3,1
2,35,8,4,19,1,447,2,6,8
2,35,8,5,33,2,287,2,1,4
2,35,8,6,25,2,295,1,2,3
2,35,8,7,10,3,310,5,7,1
2,35,8,8,39,3,547,7,5,8
2,35,9,1,43,2,352,6,7,8
2,35,9,2,16,2,528,4,8,2
2,35,9,3,36,2,536,4,2,1
2,35,9,4,3,3,433,3,1,7
2,35,9,5,38,2,472,5,8,7
2,35,9,6,30,2,711,3,2,1
2,35,9,7,7,1,946,1,5,7
2,35,9,8,24,3,430,8,6,2
2,35,10,1,4,2,363,3,7,1
2,35,10,2,20,1,572,2,8,6
2,35,10,3,12,3,331,7,5,1
2,35,10,4,37,3,268,5,7,8
2,35,10,5,17,1,233,8,2,4
2,35,10,6,26,3,221,1,3,2
2,35,10,7,34,1,702,2,4,1
2,35,10,8,46,1,614,7,8,6
2,35,11,1,41,1,346,8,5,7
2,35,11,2,31,1,338,1,2,4
2,35,11,3,44,3,312,6,8,7
2,35,11,4,29,3,303,3,1,2
2,35,11,5,11,2,294,7,1,5
2,35,11,6,15,2,1222,4,2,8
2,35,11,7,5,1,410,7,1,3
2,35,11,8,21,2,379,6,2,8
2,35,12,1,32,3,444,1,4,2
2,35,12,2,9,2,708,5,1,7
2,35,12,3,1,3,528,1,3,7
2,35,12,4,47,3,863,8,6,7
2,35,12,5,27,1,1250,2,1,3
2,35,12,6,42,1,1260,8,7,5
2,35,12,7,18,1,395,8,4,2
2,35,12,8,22,3,751,6,8,2
2,36,1,1,45,3,2209,7,6,8
2,36,1,2,18,1,917,8,4,2
2,36,1,3,31,3,888,1,2,4
2,36,1,4,8,2,1621,1,7,5
2,36,1,5,40,2,2374,7,8,5
2,36,1,6,5,3,844,7,1,3
2,36,1,7,28,1,558,2,3,1
2,36,1,8,23,2,310,8,2,6
2,36,2,1,43,2,1890,6,7,8
2,36,2,2,37,2,311,5,7,8
2,36,2,3,33,1,441,2,1,4
2,36,2,4,24,3,282,8,6,2
2,36,2,5,29,3,237,3,1,2
2,36,2,6,15,3,227,4,2,8
2,36,2,7,9,3,201,5,1,7
2,36,2,8,2,2,315,1,7,3
2,36,3,1,30,2,327,3,2,1
2,36,3,2,47,1,404,8,6,7
2,36,3,3,21,3,261,6,2,8
2,36,3,4,1,3,243,1,3,7
2,36,3,5,11,1,161,7,1,5
2,36,3,6,41,1,217,8,5,7
2,36,3,7,13,3,190,2,4,8
2,36,3,8,32,2,238,1,4,2
2,36,4,1,22,2,416,6,8,2
2,36,4,2,14,2,198,2,8,4
2,36,4,3,46,2,270,7,8,6
2,36,4,4,3,3,234,3,1,7
2,36,4,5,26,3,248,1,3,2
2,36,4,6,12,1,214,7,5,1
2,36,4,7,35,3,240,4,1,2
2,36,4,8,38,2,193,5,8,7
2,36,5,1,16,2,376,4,8,2
2,36,5,2,19,3,173,2,6,8
2,36,5,3,36,1,214,4,2,1
2,36,5,4,39,3,242,7,5,8
2,36,5,5,6,1,251,7,3,1
2,36,5,6,44,2,466,6,8,7
2,36,5,7,27,1,238,2,1,3
2,36,5,8,10,1,214,5,7,1
2,36,6,1,17,1,223,8,2,4
2,36,6,2,7,3,40,1,5,7
2,36,6,3,20,2,173,2,8,6
2,36,6,4,4,2,225,3,7,1
2,36,6,5,48,1,52,8,7,6
2,36,6,6,25,2,231,1,2,3
2,36,6,7,42,1,255,8,7,5
2,36,6,8,34,2,241,2,4,1
2,36,7,1,37,3,158,5,7,8
2,36,7,2,5,1,55,7,1,3
2,36,7,3,26,3,205,1,3,2
2,36,7,4,11,1,168,7,1,5
2,36,7,5,47,1,218,8,6,7
2,36,7,6,18,1,253,8,4,2
2,36,7,7,19,2,247,2,6,8
2,36,7,8,33,3,233,2,1,4
2,36,8,1,4,2,191,3,7,1
2,36,8,2,14,2,292,2,8,4
2,36,8,3,39,3,268,7,5,8
2,36,8,4,23,1,183,8,2,6
2,36,8,5,7,3,173,1,5,7
2,36,8,6,31,2,234,1,2,4
2,36,8,7,45,3,124,7,6,8
2,36,8,8,25,2,249,1,2,3
2,36,9,1,44,2,221,6,8,7
2,36,9,2,27,1,225,2,1,3
2,36,9,3,32,3,267,1,4,2
2,36,9,4,22,2,227,6,8,2
2,36,9,5,15,3,211,4,2,8
2,36,9,6,10,2,175,5,7,1
2,36,9,7,38,2,4,5,8,7
2,36,9,8,6,1,229,7,3,1
2,36,10,1,40,2,242,7,8,5
2,36,10,2,29,3,252,3,1,2
2,36,10,3,12,1,206,7,5,1
2,36,10,4,36,2,181,4,2,1
2,36,10,5,2,2,282,1,7,3
2,36,10,6,48,1,225,8,7,6
2,36,10,7,16,2,262,4,8,2
2,36,10,8,24,1,111,8,6,2
2,36,11,1,41,3,24,8,5,7
2,36,11,2,28,1,188,2,3,1
2,36,11,3,21,3,185,6,2,8
2,36,11,4,9,3,226,5,1,7
2,36,11,5,1,3,86,1,3,7
2,36,11,6,43,3,199,6,7,8
2,36,11,7,17,1,213,8,2,4
2,36,11,8,34,2,418,2,4,1
2,36,12,1,46,1,68,7,8,6
2,36,12,2,20,2,183,2,8,6
2,36,12,3,30,1,236,3,2,1
2,36,12,4,35,3,934,4,1,2
2,36,12,5,8,2,172,1,7,5
2,36,12,6,13,3,1090,2,4,8
2,36,12,7,3,3,109,3,1,7
2,36,12,8,42,1,908,8,7,5
2,44,1,1,44,3,194,6,8,7
2,44,1,2,41,3,1088,8,5,7
2,44,1,3,10,3,1118,5,7,1
2,44,1,4,4,2,746,3,7,1
2,44,1,5,21,2,913,6,2,8
2,44,1,6,28,1,807,2,3,1
2,44,1,7,18,1,713,8,4,2
2,44,1,8,31,1,377,1,2,4
2,44,2,1,17,1,509,8,2,4
2,44,2,2,42,1,415,8,7,5
2,44,2,3,23,2,369,8,2,6
2,44,2,4,5,1,943,7,1,3
2,44,2,5,46,1,554,7,8,6
2,44,2,6,35,2,363,4,1,2
2,44,2,7,27,1,498,2,1,3
2,44,2,8,11,2,632,7,1,5
2,44,3,1,43,2,618,6,7,8
2,44,3,2,14,2,589,2,8,4
2,44,3,3,19,1,786,2,6,8
2,44,3,4,26,3,516,1,3,2
2,44,3,5,7,1,497,1,5,7
2,44,3,6,34,3,546,2,4,1
2,44,3,7,2,2,341,1,7,3
2,44,3,8,38,2,600,5,8,7
2,44,4,1,36,3,433,4,2,1
2,44,4,2,39,3,345,7,5,8
2,44,4,3,8,1,340,1,7,5
2,44,4,4,29,3,277,3,1,2
2,44,4,5,3,2,395,3,1,7
2,44,4,6,24,3,297,8,6,2
2,44,4,7,47,3,497,8,6,7
2,44,4,8,15,3,375,4,2,8
2,44,5,1,48,2,568,8,7,6
2,44,5,2,1,3,283,1,3,7
2,44,5,3,20,1,392,2,8,6
2,44,5,4,30,2,396,3,2,1
2,44,5,5,9,2,646,5,1,7
2,44,5,6,33,2,334,2,1,4
2,44,5,7,16,2,326,4,8,2
2,44,5,8,37,3,250,5,7,8
2,44,6,1,22,3,282,6,8,2
2,44,6,2,13,3,308,2,4,8
2,44,6,3,12,3,279,7,5,1
2,44,6,4,45,1,873,7,6,8
2,44,6,5,25,2,331,1,2,3
2,44,6,6,32,1,328,1,4,2
2,44,6,7,6,1,381,7,3,1
2,44,6,8,40,2,299,7,8,5
2,44,7,1,1,3,226,1,3,7
2,44,7,2,38,2,291,5,8,7
2,44,7,3,35,2,333,4,1,2
2,44,7,4,46,1,460,7,8,6
2,44,7,5,20,1,897,2,8,6
2,44,7,6,27,2,370,2,1,3
2,44,7,7,14,2,479,2,8,4
2,44,7,8,10,3,273,5,7,1
2,44,8,1,36,3,381,4,2,1
2,44,8,2,43,2,260,6,7,8
2,44,8,3,40,2,371,7,8,5
2,44,8,4,6,1,293,7,3,1
2,44,8,5,7,1,517,1,5,7
2,44,8,6,28,1,449,2,3,1
2,44,8,7,19,3,735,2,6,8
2,44,8,8,17,1,496,8,2,4
2,44,9,1,21,2,636,6,2,8
2,44,9,2,48,2,674,8,7,6
2,44,9,3,33,2,232,2,1,4
2,44,9,4,30,2,232,3,2,1
2,44,9,5,9,2,496,5,1,7
2,44,9,6,41,1,346,8,5,7
2,44,9,7,16,2,282,4,8,2
2,44,9,8,3,3,280,3,1,7
2,44,10,1,11,2,1059,7,1,5
2,44,10,2,18,1,326,8,4,2
2,44,10,3,44,3,584,6,8,7
2,44,10,4,32,1,723,1,4,2
2,44,10,5,39,3,248,7,5,8
2,44,10,6,22,2,311,6,8,2
2,44,10,7,5,1,578,7,1,3
2,44,10,8,26,3,548,1,3,2
2,44,11,1,47,3,402,8,6,7
2,44,11,2,13,3,251,2,4,8
2,44,11,3,24,1,418,8,6,2
2,44,11,4,29,3,452,3,1,2
2,44,11,5,34,3,296,2,4,1
2,44,11,6,42,1,348,8,7,5
2,44,11,7,12,3,317,7,5,1
2,44,11,8,4,2,364,3,7,1
2,44,12,1,8,1,257,1,7,5
2,44,12,2,25,1,252,1,2,3
2,44,12,3,31,1,290,1,2,4
2,44,12,4,2,1,261,1,7,3
2,44,12,5,23,2,682,8,2,6
2,44,12,6,15,3,338,4,2,8
2,44,12,7,37,3,700,5,7,8
2,44,12,8,45,1,385,7,6,8
2,44008,1,1,45,1,848,7,6,8
2,44008,1,2,12,3,1002,7,5,1
2,44008,1,3,2,2,667,1,7,3
2,44008,1,4,23,1,1245,8,2,6
2,44008,1,5,34,3,786,2,4,1
2,44008,1,6,17,2,786,8,2,4
2,44008,1,7,40,2,880,7,8,5
2,44008,1,8,28,1,744,2,3,1
2,44008,2,1,36,3,668,4,2,1
2,44008,2,2,22,1,901,6,8,2
2,44008,2,3,41,1,687,8,5,7
2,44008,2,4,27,1,837,2,1,3
2,44008,2,5,13,3,818,2,4,8
2,44008,2,6,48,1,598,8,7,6
2,44008,2,7,4,2,1173,3,7,1
2,44008,2,8,9,2,731,5,1,7
2,44008,3,1,31,1,510,1,2,4
2,44008,3,2,44,3,751,6,8,7
2,44008,3,3,26,3,948,1,3,2
2,44008,3,4,3,3,1121,3,1,7
2,44008,3,5,16,2,703,4,8,2
2,44008,3,6,7,1,842,1,5,7
2,44008,3,7,39,3,840,7,5,8
2,44008,3,8,21,2,680,6,2,8
2,44008,4,1,32,1,449,1,4,2
2,44008,4,2,38,2,586,5,8,7
2,44008,4,3,1,3,550,1,3,7
2,44008,4,4,47,3,685,8,6,7
2,44008,4,5,19,1,766,2,6,8
2,44008,4,6,10,3,641,5,7,1
2,44008,4,7,29,3,489,3,1,2
2,44008,4,8,15,3,617,4,2,8
2,44008,5,1,11,2,408,7,1,5
2,44008,5,2,18,3,530,8,4,2
2,44008,5,3,37,3,521,5,7,8
2,44008,5,4,46,2,923,7,8,6
2,44008,5,5,30,2,595,3,2,1
2,44008,5,6,5,1,575,7,1,3
2,44008,5,7,24,1,565,8,6,2
2,44008,5,8,35,2,427,4,1,2
2,44008,6,1,25,2,449,1,2,3
2,44008,6,2,42,1,681,8,7,5
2,44008,6,3,20,1,593,2,8,6
2,44008,6,4,8,1,476,1,7,5
2,44008,6,5,6,1,500,7,3,1
2,44008,6,6,43,2,589,6,7,8
2,44008,6,7,33,2,554,2,1,4
2,44008,6,8,14,2,512,2,8,4
2,44008,7,1,39,3,532,7,5,8
2,44008,7,2,28,1,353,2,3,1
2,44008,7,3,17,1,406,8,2,4
2,44008,7,4,22,3,601,6,8,2
2,44008,7,5,45,1,1207,7,6,8
2,44008,7,6,9,2,724,5,1,7
2,44008,7,7,31,2,445,1,2,4
2,44008,7,8,2,2,386,1,7,3
2,44008,8,1,21,3,1146,6,2,8
2,44008,8,2,8,1,506,1,7,5
2,44008,8,3,35,2,405,4,1,2
2,44008,8,4,41,1,674,8,5,7
2,44008,8,5,44,2,381,6,8,7
2,44008,8,6,4,2,493,3,7,1
2,44008,8,7,26,3,614,1,3,2
2,44008,8,8,14,2,436,2,8,4
2,44008,9,1,6,1,435,7,3,1
2,44008,9,2,10,3,401,5,7,1
2,44008,9,3,20,2,432,2,8,6
2,44008,9,4,16,2,414,4,8,2
2,44008,9,5,47,3,1640,8,6,7
2,44008,9,6,40,2,486,7,8,5
2,44008,9,7,25,2,537,1,2,3
2,44008,9,8,34,3,945,2,4,1
2,44008,10,1,38,2,430,5,8,7
2,44008,10,2,27,1,427,2,1,3
2,44008,10,3,15,3,435,4,2,8
2,44008,10,4,11,2,401,7,1,5
2,44008,10,5,48,2,478,8,7,6
2,44008,10,6,5,1,395,7,1,3
2,44008,10,7,33,2,616,2,1,4
2,44008,10,8,23,1,1414,8,2,6
2,44008,11,1,7,1,1213,1,5,7
2,44008,11,2,42,1,588,8,7,5
2,44008,11,3,3,3,880,3,1,7
2,44008,11,4,43,3,957,6,7,8
2,44008,11,5,29,3,532,3,1,2
2,44008,11,6,36,3,780,4,2,1
2,44008,11,7,19,1,545,2,6,8
2,44008,11,8,18,2,921,8,4,2
2,44008,12,1,30,2,421,3,2,1
2,44008,12,2,12,3,600,7,5,1
2,44008,12,3,37,3,822,5,7,8
2,44008,12,4,1,1,506,1,3,7
2,44008,12,5,46,2,1766,7,8,6
2,44008,12,6,32,1,411,1,4,2
2,44008,12,7,24,3,554,8,6,2
2,44008,12,8,13,1,364,2,4,8
2,44009,1,1,35,2,1306,4,1,2
2,44009,1,2,39,3,1493,7,5,8
2,44009,1,3,45,1,795,7,6,8
2,44009,1,4,12,3,584,7,5,1
2,44009,1,5,1,3,1013,1,3,7
2,44009,1,6,14,1,2704,2,8,4
2,44009,1,7,19,1,751,2,6,8
2,44009,1,8,27,1,364,2,1,3
2,44009,2,1,42,1,162,8,7,5
2,44009,2,2,30,2,492,3,2,1
2,44009,2,3,10,3,966,5,7,1
2,44009,2,4,21,2,394,6,2,8
2,44009,2,5,33,2,553,2,1,4
2,44009,2,6,6,1,401,7,3,1
2,44009,2,7,17,1,310,8,2,4
2,44009,2,8,44,3,1282,6,8,7
2,44009,3,1,5,1,448,7,1,3
2,44009,3,2,25,2,359,1,2,3
2,44009,3,3,32,1,480,1,4,2
2,44009,3,4,22,3,332,6,8,2
2,44009,3,5,8,1,750,1,7,5
2,44009,3,6,37,3,303,5,7,8
2,44009,3,7,15,3,650,4,2,8
2,44009,3,8,47,3,599,8,6,7
2,44009,4,1,28,1,606,2,3,1
2,44009,4,2,34,3,615,2,4,1
2,44009,4,3,43,2,691,6,7,8
2,44009,4,4,13,3,397,2,4,8
2,44009,4,5,3,3,627,3,1,7
2,44009,4,6,41,1,600,8,5,7
2,44009,4,7,20,1,374,2,8,6
2,44009,4,8,7,1,557,1,5,7
2,44009,5,1,38,2,1447,5,8,7
2,44009,5,2,31,1,184,1,2,4
2,44009,5,3,2,2,545,1,7,3
2,44009,5,4,23,2,688,8,2,6
2,44009,5,5,9,2,588,5,1,7
2,44009,5,6,26,3,368,1,3,2
2,44009,5,7,16,2,306,4,8,2
2,44009,5,8,46,1,564,7,8,6
2,44009,6,1,40,2,721,7,8,5
2,44009,6,2,36,3,343,4,2,1
2,44009,6,3,24,3,318,8,6,2
2,44009,6,4,4,2,465,3,7,1
2,44009,6,5,48,2,726,8,7,6
2,44009,6,6,11,2,640,7,1,5
2,44009,6,7,18,1,350,8,4,2
2,44009,6,8,29,3,361,3,1,2
2,44009,7,1,16,2,668,4,8,2
2,44009,7,2,25,2,447,1,2,3
2,44009,7,3,9,2,691,5,1,7
2,44009,7,4,34,1,466,2,4,1
2,44009,7,5,5,1,358,7,1,3
2,44009,7,6,41,1,595,8,5,7
2,44009,7,7,43,2,699,6,7,8
2,44009,7,8,22,3,321,6,8,2
2,44009,8,1,45,1,286,7,6,8
2,44009,8,2,7,1,308,1,5,7
2,44009,8,3,24,3,266,8,6,2
2,44009,8,4,13,1,259,2,4,8
2,44009,8,5,6,1,458,7,3,1
2,44009,8,6,38,2,351,5,8,7
2,44009,8,7,32,3,450,1,4,2
2,44009,8,8,27,1,221,2,1,3
2,44009,9,1,33,1,1011,2,1,4
2,44009,9,2,19,1,217,2,6,8
2,44009,9,3,29,3,462,3,1,2
2,44009,9,4,17,2,673,8,2,4
2,44009,9,5,12,1,1165,7,5,1
2,44009,9,6,2,2,272,1,7,3
2,44009,9,7,40,1,347,7,8,5
2,44009,9,8,46,1,354,7,8,6
2,44009,10,1,39,3,512,7,5,8
2,44009,10,2,4,2,220,3,7,1
2,44009,10,3,11,1,252,7,1,5
2,44009,10,4,14,2,324,2,8,4
2,44009,10,5,30,2,671,3,2,1
2,44009,10,6,44,3,358,6,8,7
2,44009,10,7,21,2,408,6,2,8
2,44009,10,8,35,2,833,4,1,2
2,44009,11,1,47,3,459,8,6,7
2,44009,11,2,31,2,786,1,2,4
2,44009,11,3,42,1,1349,8,7,5
2,44009,11,4,1,3,481,1,3,7
2,44009,11,5,26,3,569,1,3,2
2,44009,11,6,15,3,780,4,2,8
2,44009,11,7,20,1,495,2,8,6
2,44009,11,8,8,2,526,1,7,5
2,44009,12,1,3,3,562,3,1,7
2,44009,12,2,18,1,346,8,4,2
2,44009,12,3,36,3,914,4,2,1
2,44009,12,4,37,3,1572,5,7,8
2,44009,12,5,23,2,247,8,2,6
2,44009,12,6,48,1,750,8,7,6
2,44009,12,7,10,3,469,5,7,1
2,44009,12,8,28,1,251,2,3,1
2,44010,1,1,33,2,95,2,1,4
2,44010,1,2,22,3,5344,6,8,2
2,44010,1,3,27,1,380,2,1,3
2,44010,1,4,7,1,393,1,5,7
2,44010,1,5,17,2,402,8,2,4
2,44010,1,6,40,2,719,7,8,5
2,44010,1,7,43,1,428,6,7,8
2,44010,1,8,5,2,317,7,1,3
2,44010,2,1,46,1,473,7,8,6
2,44010,2,2,1,1,347,1,3,7
2,44010,2,3,10,3,450,5,7,1
2,44010,2,4,18,1,873,8,4,2
2,44010,2,5,42,3,432,8,7,5
2,44010,2,6,25,2,1317,1,2,3
2,44010,2,7,23,2,429,8,2,6
2,44010,2,8,32,3,1083,1,4,2
2,44010,3,1,47,3,342,8,6,7
2,44010,3,2,41,3,435,8,5,7
2,44010,3,3,11,2,419,7,1,5
2,44010,3,4,26,1,348,1,3,2
2,44010,3,5,14,1,477,2,8,4
2,44010,3,6,3,2,404,3,1,7
2,44010,3,7,24,3,450,8,6,2
2,44010,3,8,34,1,428,2,4,1
2,44010,4,1,44,1,914,6,8,7
2,44010,4,2,12,3,304,7,5,1
2,44010,4,3,19,1,126,2,6,8
2,44010,4,4,38,1,838,5,8,7
2,44010,4,5,6,3,168,7,3,1
2,44010,4,6,28,1,736,2,3,1
2,44010,4,7,16,2,431,4,8,2
2,44010,4,8,36,3,2109,4,2,1
2,44010,5,1,2,2,357,1,7,3
2,44010,5,2,31,2,404,1,2,4
2,44010,5,3,8,1,316,1,7,5
2,44010,5,4,21,2,504,6,2,8
2,44010,5,5,39,1,885,7,5,8
2,44010,5,6,13,3,395,2,4,8
2,44010,5,7,29,3,349,3,1,2
2,44010,5,8,45,1,298,7,6,8
2,44010,6,1,9,2,288,5,1,7
2,44010,6,2,4,2,433,3,7,1
2,44010,6,3,37,3,528,5,7,8
2,44010,6,4,35,2,368,4,1,2
2,44010,6,5,15,1,1811,4,2,8
2,44010,6,6,20,1,333,2,8,6
2,44010,6,7,48,1,404,8,7,6
2,44010,6,8,30,2,306,3,2,1
2,44010,7,1,34,3,362,2,4,1
2,44010,7,2,38,2,410,5,8,7
2,44010,7,3,13,3,288,2,4,8
2,44010,7,4,5,1,298,7,1,3
2,44010,7,5,43,3,331,6,7,8
2,44010,7,6,24,3,317,8,6,2
2,44010,7,7,11,2,534,7,1,5
2,44010,7,8,25,2,234,1,2,3
2,44010,8,1,10,3,305,5,7,1
2,44010,8,2,40,2,489,7,8,5
2,44010,8,3,2,2,442,1,7,3
2,44010,8,4,15,3,414,4,2,8
2,44010,8,5,31,1,400,1,2,4
2,44010,8,6,22,3,388,6,8,2
2,44010,8,7,28,1,329,2,3,1
2,44010,8,8,45,3,329,7,6,8
2,44010,9,1,12,3,349,7,5,1
2,44010,9,2,48,2,403,8,7,6
2,44010,9,3,14,2,334,2,8,4
2,44010,9,4,6,1,421,7,3,1
2,44010,9,5,20,1,386,2,8,6
2,44010,9,6,27,1,623,2,1,3
2,44010,9,7,42,1,300,8,7,5
2,44010,9,8,32,1,373,1,4,2
2,44010,10,1,1,3,341,1,3,7
2,44010,10,2,16,2,349,4,8,2
2,44010,10,3,46,1,366,7,8,6
2,44010,10,4,9,2,364,5,1,7
2,44010,10,5,23,2,332,8,2,6
2,44010,10,6,37,3,363,5,7,8
2,44010,10,7,36,3,435,4,2,1
2,44010,10,8,30,2,375,3,2,1
2,44010,11,1,17,1,400,8,2,4
2,44010,11,2,26,3,387,1,3,2
2,44010,11,3,44,1,577,6,8,7
2,44010,11,4,7,1,375,1,5,7
2,44010,11,5,35,2,294,4,1,2
2,44010,11,6,21,2,481,6,2,8
2,44010,11,7,41,1,395,8,5,7
2,44010,11,8,4,2,362,3,7,1
2,44010,12,1,33,2,390,2,1,4
2,44010,12,2,18,1,381,8,4,2
2,44010,12,3,8,1,355,1,7,5
2,44010,12,4,29,3,611,3,1,2
2,44010,12,5,3,3,456,3,1,7
2,44010,12,6,39,3,419,7,5,8
2,44010,12,7,19,1,590,2,6,8
2,44010,12,8,47,1,574,8,6,7
2,44011,1,1,40,3,2930,7,8,5
2,44011,1,2,6,1,432,7,3,1
2,44011,1,3,45,1,446,7,6,8
2,44011,1,4,12,3,1622,7,5,1
2,44011,1,5,17,1,1863,8,2,4
2,44011,1,6,31,1,544,1,2,4
2,44011,1,7,20,1,464,2,8,6
2,44011,1,8,27,1,399,2,1,3
2,44011,2,1,23,3,547,8,2,6
2,44011,2,2,34,3,172,2,4,1
2,44011,2,3,46,1,309,7,8,6
2,44011,2,4,25,2,516,1,2,3
2,44011,2,5,42,1,330,8,7,5
2,44011,2,6,3,3,310,3,1,7
2,44011,2,7,18,1,325,8,4,2
2,44011,2,8,10,3,2250,5,7,1
2,44011,3,1,43,2,774,6,7,8
2,44011,3,2,4,2,290,3,7,1
2,44011,3,3,33,2,793,2,1,4
2,44011,3,4,28,1,386,2,3,1
2,44011,3,5,38,2,452,5,8,7
2,44011,3,6,21,2,348,6,2,8
2,44011,3,7,8,1,1992,1,7,5
