cond,subj,blk,trial,triad,resp,rt,left1,mid2,right3
1,6230,1,1,21,2,1810,6,2,8
1,6230,1,2,14,2,627,2,8,4
1,6230,1,3,1,3,539,1,3,7
1,6230,1,4,10,3,720,5,7,1
1,6230,1,5,30,1,1012,3,2,1
1,6230,1,6,32,2,589,1,4,2
1,6230,1,7,42,1,964,8,7,5
1,6230,1,8,44,3,831,6,8,7
1,6230,2,1,25,1,1107,1,2,3
1,6230,2,2,20,2,544,2,8,6
1,6230,2,3,40,2,683,7,8,5
1,6230,2,4,46,1,636,7,8,6
1,6230,2,5,33,3,849,2,1,4
1,6230,2,6,2,2,537,1,7,3
1,6230,2,7,13,3,597,2,4,8
1,6230,2,8,9,3,526,5,1,7
1,6230,3,1,39,1,990,7,5,8
1,6230,3,2,16,2,497,4,8,2
1,6230,3,3,48,1,805,8,7,6
1,6230,3,4,26,3,687,1,3,2
1,6230,3,5,23,1,628,8,2,6
1,6230,3,6,8,2,476,1,7,5
1,6230,3,7,5,1,610,7,1,3
1,6230,3,8,36,1,952,4,2,1
1,6230,4,1,7,3,754,1,5,7
1,6230,4,2,37,2,490,5,7,8
1,6230,4,3,3,3,489,3,1,7
1,6230,4,4,34,1,621,2,4,1
1,6230,4,5,43,2,437,6,7,8
1,6230,4,6,18,1,484,8,4,2
1,6230,4,7,24,1,478,8,6,2
1,6230,4,8,28,1,666,2,3,1
1,6230,5,1,6,1,363,7,3,1
1,6230,5,2,45,1,368,7,6,8
1,6230,5,3,35,1,612,4,1,2
1,6230,5,4,12,1,436,7,5,1
1,6230,5,5,19,3,821,2,6,8
1,6230,5,6,29,1,632,3,1,2
1,6230,5,7,15,1,727,4,2,8
1,6230,5,8,38,3,589,5,8,7
1,6230,6,1,11,1,508,7,1,5
1,6230,6,2,27,2,735,2,1,3
1,6230,6,3,47,3,427,8,6,7
1,6230,6,4,22,1,545,6,8,2
1,6230,6,5,31,3,599,1,2,4
1,6230,6,6,4,2,376,3,7,1
1,6230,6,7,17,1,599,8,2,4
1,6230,6,8,41,3,711,8,5,7
1,6230,7,1,33,1,917,2,1,4
1,6230,7,2,15,3,409,4,2,8
1,6230,7,3,38,1,471,5,8,7
1,6230,7,4,8,2,445,1,7,5
1,6230,7,5,25,3,536,1,2,3
1,6230,7,6,48,2,821,8,7,6
1,6230,7,7,21,3,1107,6,2,8
1,6230,7,8,2,2,350,1,7,3
1,6230,8,1,46,1,477,7,8,6
1,6230,8,2,7,3,483,1,5,7
1,6230,8,3,35,1,658,4,1,2
1,6230,8,4,29,2,430,3,1,2
1,6230,8,5,37,2,1280,5,7,8
1,6230,8,6,5,1,1196,7,1,3
1,6230,8,7,14,2,838,2,8,4
1,6230,8,8,24,2,1055,8,6,2
1,6230,9,1,10,3,1033,5,7,1
1,6230,9,2,16,3,1208,4,8,2
1,6230,9,3,27,2,1071,2,1,3
1,6230,9,4,3,3,1319,3,1,7
1,6230,9,5,20,2,722,2,8,6
1,6230,9,6,32,2,1038,1,4,2
1,6230,9,7,47,3,739,8,6,7
1,6230,9,8,40,1,830,7,8,5
1,6230,10,1,31,3,561,1,2,4
1,6230,10,2,41,3,436,8,5,7
1,6230,10,3,28,2,530,2,3,1
1,6230,10,4,12,1,435,7,5,1
1,6230,10,5,4,2,419,3,7,1
1,6230,10,6,13,3,495,2,4,8
1,6230,10,7,19,2,716,2,6,8
1,6230,10,8,45,1,416,7,6,8
1,6230,11,1,30,1,1406,3,2,1
1,6230,11,2,9,3,532,5,1,7
1,6230,11,3,36,1,601,4,2,1
1,6230,11,4,22,2,511,6,8,2
1,6230,11,5,1,3,448,1,3,7
1,6230,11,6,42,2,621,8,7,5
1,6230,11,7,44,2,604,6,8,7
1,6230,11,8,18,1,346,8,4,2
1,6230,12,1,6,1,502,7,3,1
1,6230,12,2,26,2,778,1,3,2
1,6230,12,3,23,1,429,8,2,6
1,6230,12,4,39,1,375,7,5,8
1,6230,12,5,17,1,595,8,2,4
1,6230,12,6,34,1,571,2,4,1
1,6230,12,7,11,1,390,7,1,5
1,6230,12,8,43,2,440,6,7,8
1,6231,1,1,40,3,621,7,8,5
1,6231,1,2,22,3,2566,6,8,2
1,6231,1,3,17,1,914,8,2,4
1,6231,1,4,2,1,1051,1,7,3
1,6231,1,5,36,3,641,4,2,1
1,6231,1,6,48,3,753,8,7,6
1,6231,1,7,7,1,1007,1,5,7
1,6231,1,8,30,2,1170,3,2,1
1,6231,2,1,18,1,607,8,4,2
1,6231,2,2,21,2,640,6,2,8
1,6231,2,3,4,3,1027,3,7,1
1,6231,2,4,31,1,739,1,2,4
1,6231,2,5,11,1,916,7,1,5
1,6231,2,6,41,1,861,8,5,7
1,6231,2,7,43,2,1182,6,7,8
1,6231,2,8,29,2,702,3,1,2
1,6231,3,1,35,2,513,4,1,2
1,6231,3,2,28,3,605,2,3,1
1,6231,3,3,3,3,529,3,1,7
1,6231,3,4,13,3,544,2,4,8
1,6231,3,5,42,3,783,8,7,5
1,6231,3,6,24,1,599,8,6,2
1,6231,3,7,44,3,697,6,8,7
1,6231,3,8,9,2,1072,5,1,7
1,6231,4,1,27,2,2361,2,1,3
1,6231,4,2,23,1,1624,8,2,6
1,6231,4,3,6,3,1230,7,3,1
1,6231,4,4,38,1,737,5,8,7
1,6231,4,5,16,2,789,4,8,2
1,6231,4,6,32,1,574,1,4,2
1,6231,4,7,10,3,427,5,7,1
1,6231,4,8,47,1,1170,8,6,7
1,6231,5,1,19,2,1470,2,6,8
1,6231,5,2,12,3,954,7,5,1
1,6231,5,3,14,2,662,2,8,4
1,6231,5,4,1,3,813,1,3,7
1,6231,5,5,39,1,556,7,5,8
1,6231,5,6,25,1,866,1,2,3
1,6231,5,7,46,3,571,7,8,6
1,6231,5,8,34,3,640,2,4,1
1,6231,6,1,26,1,567,1,3,2
1,6231,6,2,8,1,1022,1,7,5
1,6231,6,3,37,2,810,5,7,8
1,6231,6,4,33,2,558,2,1,4
1,6231,6,5,45,2,620,7,6,8
1,6231,6,6,15,3,523,4,2,8
1,6231,6,7,20,2,1485,2,8,6
1,6231,6,8,5,2,643,7,1,3
1,6231,7,1,41,2,668,8,5,7
1,6231,7,2,4,1,1573,3,7,1
1,6231,7,3,47,2,683,8,6,7
1,6231,7,4,17,2,1108,8,2,4
1,6231,7,5,32,1,599,1,4,2
1,6231,7,6,9,2,2027,5,1,7
1,6231,7,7,19,1,743,2,6,8
1,6231,7,8,27,2,710,2,1,3
1,6231,8,1,35,2,578,4,1,2
1,6231,8,2,28,3,521,2,3,1
1,6231,8,3,39,1,489,7,5,8
1,6231,8,4,11,1,677,7,1,5
1,6231,8,5,16,2,536,4,8,2
1,6231,8,6,6,1,646,7,3,1
1,6231,8,7,45,1,486,7,6,8
1,6231,8,8,24,1,547,8,6,2
1,6231,9,1,31,1,494,1,2,4
1,6231,9,2,10,3,703,5,7,1
1,6231,9,3,1,2,1021,1,3,7
1,6231,9,4,30,2,955,3,2,1
1,6231,9,5,38,1,795,5,8,7
1,6231,9,6,22,2,1484,6,8,2
1,6231,9,7,13,3,535,2,4,8
1,6231,9,8,44,1,699,6,8,7
1,6231,10,1,14,2,501,2,8,4
1,6231,10,2,43,1,460,6,7,8
1,6231,10,3,29,2,1008,3,1,2
1,6231,10,4,42,3,655,8,7,5
1,6231,10,5,34,3,500,2,4,1
1,6231,10,6,7,2,1105,1,5,7
1,6231,10,7,5,3,2043,7,1,3
1,6231,10,8,21,3,1329,6,2,8
1,6231,11,1,40,3,469,7,8,5
1,6231,11,2,48,3,455,8,7,6
1,6231,11,3,33,2,610,2,1,4
1,6231,11,4,25,1,672,1,2,3
1,6231,11,5,20,2,1181,2,8,6
1,6231,11,6,2,2,763,1,7,3
1,6231,11,7,15,3,831,4,2,8
1,6231,11,8,12,2,1575,7,5,1
1,6231,12,1,3,3,523,3,1,7
1,6231,12,2,37,1,457,5,7,8
1,6231,12,3,8,3,2915,1,7,5
1,6231,12,4,46,3,534,7,8,6
1,6231,12,5,36,3,2319,4,2,1
1,6231,12,6,26,3,581,1,3,2
1,6231,12,7,18,1,925,8,4,2
1,6231,12,8,23,3,981,8,2,6
1,6235,1,1,41,3,3493,8,5,7
1,6235,1,2,22,3,821,6,8,2
1,6235,1,3,1,1,1322,1,3,7
1,6235,1,4,18,3,1162,8,4,2
1,6235,1,5,33,2,2013,2,1,4
1,6235,1,6,11,2,930,7,1,5
1,6235,1,7,44,3,1830,6,8,7
1,6235,1,8,25,2,1363,1,2,3
1,6235,2,1,24,3,740,8,6,2
1,6235,2,2,31,1,1509,1,2,4
1,6235,2,3,28,3,1091,2,3,1
1,6235,2,4,48,2,1017,8,7,6
1,6235,2,5,10,3,729,5,7,1
1,6235,2,6,37,3,2160,5,7,8
1,6235,2,7,3,2,2835,3,1,7
1,6235,2,8,13,3,1237,2,4,8
1,6235,3,1,40,3,2326,7,8,5
1,6235,3,2,20,3,4185,2,8,6
1,6235,3,3,32,1,732,1,4,2
1,6235,3,4,30,3,849,3,2,1
1,6235,3,5,17,3,1348,8,2,4
1,6235,3,6,5,1,2392,7,1,3
1,6235,3,7,45,1,841,7,6,8
1,6235,3,8,12,3,961,7,5,1
1,6235,4,1,43,2,1182,6,7,8
1,6235,4,2,4,2,2260,3,7,1
1,6235,4,3,15,3,3105,4,2,8
1,6235,4,4,23,2,949,8,2,6
1,6235,4,5,42,2,3052,8,7,5
1,6235,4,6,29,2,2930,3,1,2
1,6235,4,7,36,3,871,4,2,1
1,6235,4,8,7,3,2127,1,5,7
1,6235,5,1,35,2,961,4,1,2
1,6235,5,2,16,2,2204,4,8,2
1,6235,5,3,6,1,1146,7,3,1
1,6235,5,4,38,2,1270,5,8,7
1,6235,5,5,27,3,1463,2,1,3
1,6235,5,6,46,1,1354,7,8,6
1,6235,5,7,8,1,2079,1,7,5
1,6235,5,8,21,2,856,6,2,8
1,6235,6,1,14,2,2321,2,8,4
1,6235,6,2,39,1,4252,7,5,8
1,6235,6,3,34,3,1099,2,4,1
1,6235,6,4,19,3,986,2,6,8
1,6235,6,5,9,2,2572,5,1,7
1,6235,6,6,26,1,1866,1,3,2
1,6235,6,7,47,2,1900,8,6,7
1,6235,6,8,2,2,669,1,7,3
1,6235,7,1,25,2,1374,1,2,3
1,6235,7,2,42,1,2715,8,7,5
1,6235,7,3,5,1,1344,7,1,3
1,6235,7,4,46,3,1872,7,8,6
1,6235,7,5,24,3,794,8,6,2
1,6235,7,6,17,1,1390,8,2,4
1,6235,7,7,11,2,1445,7,1,5
1,6235,7,8,35,2,828,4,1,2
1,6235,8,1,37,1,4293,5,7,8
1,6235,8,2,31,1,1499,1,2,4
1,6235,8,3,15,3,1206,4,2,8
1,6235,8,4,43,2,1083,6,7,8
1,6235,8,5,4,3,989,3,7,1
1,6235,8,6,10,3,687,5,7,1
1,6235,8,7,29,2,1486,3,1,2
1,6235,8,8,22,3,981,6,8,2
1,6235,9,1,48,3,2170,8,7,6
1,6235,9,2,33,3,700,2,1,4
1,6235,9,3,26,2,808,1,3,2
1,6235,9,4,16,1,942,4,8,2
1,6235,9,5,3,1,509,3,1,7
1,6235,9,6,23,3,681,8,2,6
1,6235,9,7,8,1,2493,1,7,5
1,6235,9,8,38,2,1195,5,8,7
1,6235,10,1,18,1,1920,8,4,2
1,6235,10,2,30,2,1283,3,2,1
1,6235,10,3,40,2,867,7,8,5
1,6235,10,4,9,2,790,5,1,7
1,6235,10,5,19,1,1502,2,6,8
1,6235,10,6,32,1,1280,1,4,2
1,6235,10,7,44,1,1849,6,8,7
1,6235,10,8,6,2,2411,7,3,1
1,6235,11,1,45,2,1529,7,6,8
1,6235,11,2,34,3,1209,2,4,1
1,6235,11,3,28,3,650,2,3,1
1,6235,11,4,7,1,651,1,5,7
1,6235,11,5,41,1,1528,8,5,7
1,6235,11,6,13,3,898,2,4,8
1,6235,11,7,20,2,763,2,8,6
1,6235,11,8,1,3,837,1,3,7
1,6235,12,1,21,2,2806,6,2,8
1,6235,12,2,14,2,655,2,8,4
1,6235,12,3,27,1,1129,2,1,3
1,6235,12,4,47,3,1283,8,6,7
1,6235,12,5,2,2,1208,1,7,3
1,6235,12,6,36,2,771,4,2,1
1,6235,12,7,12,3,1100,7,5,1
1,6235,12,8,39,3,1558,7,5,8
1,6236,1,1,9,2,2136,5,1,7
1,6236,1,2,41,1,1348,8,5,7
1,6236,1,3,46,1,1012,7,8,6
1,6236,1,4,1,3,893,1,3,7
1,6236,1,5,19,1,5585,2,6,8
1,6236,1,6,17,1,928,8,2,4
1,6236,1,7,34,2,3011,2,4,1
1,6236,1,8,29,3,1575,3,1,2
1,6236,2,1,23,2,914,8,2,6
1,6236,2,2,44,3,795,6,8,7
1,6236,2,3,4,2,617,3,7,1
1,6236,2,4,27,2,3114,2,1,3
1,6236,2,5,11,2,3190,7,1,5
1,6236,2,6,38,2,1507,5,8,7
1,6236,2,7,13,3,1014,2,4,8
1,6236,2,8,36,2,3166,4,2,1
1,6236,3,1,18,1,1509,8,4,2
1,6236,3,2,5,1,2570,7,1,3
1,6236,3,3,10,3,1237,5,7,1
1,6236,3,4,48,2,1391,8,7,6
1,6236,3,5,31,1,3348,1,2,4
1,6236,3,6,24,3,4364,8,6,2
1,6236,3,7,30,2,1318,3,2,1
1,6236,3,8,37,3,1237,5,7,8
1,6236,4,1,6,1,1363,7,3,1
1,6236,4,2,43,2,3289,6,7,8
1,6236,4,3,20,2,1968,2,8,6
1,6236,4,4,12,3,962,7,5,1
1,6236,4,5,15,3,784,4,2,8
1,6236,4,6,28,1,1604,2,3,1
1,6236,4,7,39,3,1855,7,5,8
1,6236,4,8,33,2,1188,2,1,4
1,6236,5,1,8,3,6338,1,7,5
1,6236,5,2,47,3,3026,8,6,7
1,6236,5,3,26,2,2975,1,3,2
1,6236,5,4,2,2,2531,1,7,3
1,6236,5,5,42,1,3069,8,7,5
1,6236,5,6,35,2,2393,4,1,2
1,6236,5,7,16,2,697,4,8,2
1,6236,5,8,22,2,1646,6,8,2
1,6236,6,1,40,2,933,7,8,5
1,6236,6,2,32,2,1503,1,4,2
1,6236,6,3,21,2,4723,6,2,8
1,6236,6,4,45,1,2855,7,6,8
1,6236,6,5,7,3,2071,1,5,7
1,6236,6,6,14,2,929,2,8,4
1,6236,6,7,3,3,2042,3,1,7
1,6236,6,8,25,2,2085,1,2,3
1,6236,7,1,16,2,629,4,8,2
1,6236,7,2,46,1,1021,7,8,6
1,6236,7,3,10,1,7036,5,7,1
1,6236,7,4,20,1,3387,2,8,6
1,6236,7,5,41,3,3629,8,5,7
1,6236,7,6,34,2,993,2,4,1
1,6236,7,7,5,3,1198,7,1,3
1,6236,7,8,26,3,1133,1,3,2
1,6236,8,1,6,1,2301,7,3,1
1,6236,8,2,44,3,574,6,8,7
1,6236,8,3,40,2,1006,7,8,5
1,6236,8,4,15,3,1202,4,2,8
1,6236,8,5,19,3,1701,2,6,8
1,6236,8,6,8,1,2341,1,7,5
1,6236,8,7,31,1,1249,1,2,4
1,6236,8,8,29,2,1438,3,1,2
1,6236,9,1,2,2,4330,1,7,3
1,6236,9,2,13,3,636,2,4,8
1,6236,9,3,48,2,1904,8,7,6
1,6236,9,4,42,1,812,8,7,5
1,6236,9,5,35,2,1491,4,1,2
1,6236,9,6,7,1,1417,1,5,7
1,6236,9,7,27,1,3719,2,1,3
1,6236,9,8,22,3,1205,6,8,2
1,6236,10,1,9,2,1013,5,1,7
1,6236,10,2,33,2,1578,2,1,4
1,6236,10,3,38,2,939,5,8,7
1,6236,10,4,47,3,2280,8,6,7
1,6236,10,5,14,2,731,2,8,4
1,6236,10,6,3,3,754,3,1,7
1,6236,10,7,24,1,675,8,6,2
1,6236,10,8,30,2,899,3,2,1
1,6236,11,1,43,2,6351,6,7,8
1,6236,11,2,23,2,1925,8,2,6
1,6236,11,3,25,2,991,1,2,3
1,6236,11,4,17,1,588,8,2,4
1,6236,11,5,32,2,1610,1,4,2
1,6236,11,6,11,2,1572,7,1,5
1,6236,11,7,1,3,1565,1,3,7
1,6236,11,8,37,3,2748,5,7,8
1,6236,12,1,4,2,576,3,7,1
1,6236,12,2,12,1,515,7,5,1
1,6236,12,3,36,3,916,4,2,1
1,6236,12,4,39,3,938,7,5,8
1,6236,12,5,28,1,995,2,3,1
1,6236,12,6,18,1,470,8,4,2
1,6236,12,7,21,2,1035,6,2,8
1,6236,12,8,45,3,1498,7,6,8
1,6237,1,1,39,3,2108,7,5,8
1,6237,1,2,12,3,534,7,5,1
1,6237,1,3,33,2,613,2,1,4
1,6237,1,4,16,3,585,4,8,2
1,6237,1,5,20,2,404,2,8,6
1,6237,1,6,1,3,448,1,3,7
1,6237,1,7,46,1,514,7,8,6
1,6237,1,8,29,3,371,3,1,2
1,6237,2,1,36,2,467,4,2,1
1,6237,2,2,22,2,798,6,8,2
1,6237,2,3,44,2,359,6,8,7
1,6237,2,4,18,1,676,8,4,2
1,6237,2,5,28,2,568,2,3,1
1,6237,2,6,8,1,633,1,7,5
1,6237,2,7,41,1,489,8,5,7
1,6237,2,8,4,2,435,3,7,1
1,6237,3,1,11,2,453,7,1,5
1,6237,3,2,45,1,1123,7,6,8
1,6237,3,3,31,2,479,1,2,4
1,6237,3,4,3,3,540,3,1,7
1,6237,3,5,23,2,396,8,2,6
1,6237,3,6,40,2,409,7,8,5
1,6237,3,7,30,2,471,3,2,1
1,6237,3,8,14,2,394,2,8,4
1,6237,4,1,25,2,217,1,2,3
1,6237,4,2,42,1,536,8,7,5
1,6237,4,3,15,3,790,4,2,8
1,6237,4,4,10,3,640,5,7,1
1,6237,4,5,43,3,485,6,7,8
1,6237,4,6,34,3,766,2,4,1
1,6237,4,7,21,2,693,6,2,8
1,6237,4,8,6,1,2007,7,3,1
1,6237,5,1,13,3,967,2,4,8
1,6237,5,2,2,2,407,1,7,3
1,6237,5,3,24,3,661,8,6,2
1,6237,5,4,48,2,588,8,7,6
1,6237,5,5,27,1,718,2,1,3
1,6237,5,6,32,1,617,1,4,2
1,6237,5,7,9,2,955,5,1,7
1,6237,5,8,37,3,727,5,7,8
1,6237,6,1,7,1,915,1,5,7
1,6237,6,2,5,1,826,7,1,3
1,6237,6,3,47,3,803,8,6,7
1,6237,6,4,38,2,520,5,8,7
1,6237,6,5,17,1,592,8,2,4
1,6237,6,6,19,3,484,2,6,8
1,6237,6,7,35,2,665,4,1,2
1,6237,6,8,26,3,787,1,3,2
1,6237,7,1,44,3,538,6,8,7
1,6237,7,2,22,3,579,6,8,2
1,6237,7,3,28,1,1235,2,3,1
1,6237,7,4,10,3,634,5,7,1
1,6237,7,5,32,1,671,1,4,2
1,6237,7,6,41,1,554,8,5,7
1,6237,7,7,14,2,925,2,8,4
1,6237,7,8,1,3,447,1,3,7
1,6237,8,1,34,3,768,2,4,1
1,6237,8,2,37,3,442,5,7,8
1,6237,8,3,16,2,674,4,8,2
1,6237,8,4,8,1,638,1,7,5
1,6237,8,5,24,3,460,8,6,2
1,6237,8,6,6,1,488,7,3,1
1,6237,8,7,46,1,601,7,8,6
1,6237,8,8,29,3,454,3,1,2
1,6237,9,1,31,2,727,1,2,4
1,6237,9,2,2,2,461,1,7,3
1,6237,9,3,43,2,813,6,7,8
1,6237,9,4,30,2,420,3,2,1
1,6237,9,5,38,2,428,5,8,7
1,6237,9,6,12,3,626,7,5,1
1,6237,9,7,20,1,490,2,8,6
1,6237,9,8,18,1,581,8,4,2
1,6237,10,1,25,2,1839,1,2,3
1,6237,10,2,15,2,1036,4,2,8
1,6237,10,3,19,3,381,2,6,8
1,6237,10,4,4,3,566,3,7,1
1,6237,10,5,7,1,384,1,5,7
1,6237,10,6,47,3,737,8,6,7
1,6237,10,7,36,2,411,4,2,1
1,6237,10,8,40,2,347,7,8,5
1,6237,11,1,27,1,361,2,1,3
1,6237,11,2,48,1,923,8,7,6
1,6237,11,3,9,2,856,5,1,7
1,6237,11,4,21,2,350,6,2,8
1,6237,11,5,39,3,387,7,5,8
1,6237,11,6,5,1,485,7,1,3
1,6237,11,7,35,3,825,4,1,2
1,6237,11,8,17,2,352,8,2,4
1,6237,12,1,33,3,1580,2,1,4
1,6237,12,2,23,2,402,8,2,6
1,6237,12,3,13,3,691,2,4,8
1,6237,12,4,45,3,446,7,6,8
1,6237,12,5,3,3,499,3,1,7
1,6237,12,6,42,1,356,8,7,5
1,6237,12,7,11,2,653,7,1,5
1,6237,12,8,26,3,405,1,3,2
1,6239,1,1,8,1,822,1,7,5
1,6239,1,2,47,2,1058,8,6,7
1,6239,1,3,33,2,382,2,1,4
1,6239,1,4,25,1,408,1,2,3
1,6239,1,5,18,3,441,8,4,2
1,6239,1,6,39,3,1794,7,5,8
1,6239,1,7,2,2,936,1,7,3
1,6239,1,8,20,3,647,2,8,6
1,6239,2,1,6,1,884,7,3,1
1,6239,2,2,10,2,596,5,7,1
1,6239,2,3,28,2,584,2,3,1
1,6239,2,4,31,1,812,1,2,4
1,6239,2,5,16,2,452,4,8,2
1,6239,2,6,41,1,1144,8,5,7
1,6239,2,7,21,1,1032,6,2,8
1,6239,2,8,45,1,592,7,6,8
1,6239,3,1,5,1,497,7,1,3
1,6239,3,2,38,3,451,5,8,7
1,6239,3,3,17,1,814,8,2,4
1,6239,3,4,44,3,412,6,8,7
1,6239,3,5,23,2,1423,8,2,6
1,6239,3,6,30,1,1297,3,2,1
1,6239,3,7,12,1,939,7,5,1
1,6239,3,8,35,2,803,4,1,2
1,6239,4,1,42,1,673,8,7,5
1,6239,4,2,1,3,429,1,3,7
1,6239,4,3,24,1,490,8,6,2
1,6239,4,4,29,1,1172,3,1,2
1,6239,4,5,36,3,916,4,2,1
1,6239,4,6,11,1,487,7,1,5
1,6239,4,7,15,3,919,4,2,8
1,6239,4,8,46,1,395,7,8,6
1,6239,5,1,22,2,552,6,8,2
1,6239,5,2,4,2,462,3,7,1
1,6239,5,3,43,2,387,6,7,8
1,6239,5,4,27,3,517,2,1,3
1,6239,5,5,32,1,712,1,4,2
1,6239,5,6,9,3,611,5,1,7
1,6239,5,7,40,1,536,7,8,5
1,6239,5,8,13,3,391,2,4,8
1,6239,6,1,26,2,566,1,3,2
1,6239,6,2,37,2,333,5,7,8
1,6239,6,3,7,3,487,1,5,7
1,6239,6,4,48,2,320,8,7,6
1,6239,6,5,34,3,961,2,4,1
1,6239,6,6,3,3,424,3,1,7
1,6239,6,7,14,2,414,2,8,4
1,6239,6,8,19,3,405,2,6,8
1,6239,7,1,38,3,712,5,8,7
1,6239,7,2,18,1,278,8,4,2
1,6239,7,3,6,1,534,7,3,1
1,6239,7,4,45,1,360,7,6,8
1,6239,7,5,33,2,609,2,1,4
1,6239,7,6,10,2,424,5,7,1
1,6239,7,7,21,3,2111,6,2,8
1,6239,7,8,27,3,596,2,1,3
1,6239,8,1,13,3,416,2,4,8
1,6239,8,2,9,1,563,5,1,7
1,6239,8,3,23,3,462,8,2,6
1,6239,8,4,37,1,389,5,7,8
1,6239,8,5,46,1,485,7,8,6
1,6239,8,6,29,1,387,3,1,2
1,6239,8,7,31,3,588,1,2,4
1,6239,8,8,1,3,370,1,3,7
1,6239,9,1,35,2,1525,4,1,2
1,6239,9,2,14,2,417,2,8,4
1,6239,9,3,11,1,333,7,1,5
1,6239,9,4,44,3,357,6,8,7
1,6239,9,5,42,2,324,8,7,5
1,6239,9,6,5,1,381,7,1,3
1,6239,9,7,30,1,731,3,2,1
1,6239,9,8,20,2,533,2,8,6
1,6239,10,1,36,1,589,4,2,1
1,6239,10,2,24,2,348,8,6,2
1,6239,10,3,47,3,468,8,6,7
1,6239,10,4,3,3,376,3,1,7
1,6239,10,5,41,3,351,8,5,7
1,6239,10,6,17,1,417,8,2,4
1,6239,10,7,28,2,954,2,3,1
1,6239,10,8,7,3,921,1,5,7
1,6239,11,1,22,2,484,6,8,2
1,6239,11,2,26,2,707,1,3,2
1,6239,11,3,15,1,447,4,2,8
1,6239,11,4,12,2,487,7,5,1
1,6239,11,5,4,2,378,3,7,1
1,6239,11,6,48,2,299,8,7,6
1,6239,11,7,34,3,1141,2,4,1
1,6239,11,8,40,1,375,7,8,5
1,6239,12,1,8,2,254,1,7,5
1,6239,12,2,39,1,363,7,5,8
1,6239,12,3,43,2,245,6,7,8
1,6239,12,4,2,3,195,1,7,3
1,6239,12,5,19,2,415,2,6,8
1,6239,12,6,16,2,1245,4,8,2
1,6239,12,7,25,3,805,1,2,3
1,6239,12,8,32,1,939,1,4,2
1,6241,1,1,13,3,2548,2,4,8
1,6241,1,2,27,1,1981,2,1,3
1,6241,1,3,22,3,926,6,8,2
1,6241,1,4,12,3,867,7,5,1
1,6241,1,5,40,2,1151,7,8,5
1,6241,1,6,34,3,1145,2,4,1
1,6241,1,7,4,2,2295,3,7,1
1,6241,1,8,47,3,3095,8,6,7
1,6241,2,1,26,3,1292,1,3,2
1,6241,2,2,48,2,996,8,7,6
1,6241,2,3,41,1,1377,8,5,7
1,6241,2,4,31,1,1037,1,2,4
1,6241,2,5,2,2,823,1,7,3
1,6241,2,6,15,3,649,4,2,8
1,6241,2,7,24,3,3089,8,6,2
1,6241,2,8,11,2,1162,7,1,5
1,6241,3,1,14,2,1029,2,8,4
1,6241,3,2,45,3,2155,7,6,8
1,6241,3,3,33,2,1088,2,1,4
1,6241,3,4,9,2,1074,5,1,7
1,6241,3,5,19,3,1880,2,6,8
1,6241,3,6,38,2,1353,5,8,7
1,6241,3,7,5,1,1662,7,1,3
1,6241,3,8,25,2,2295,1,2,3
1,6241,4,1,36,3,3055,4,2,1
1,6241,4,2,6,1,1902,7,3,1
1,6241,4,3,21,2,949,6,2,8
1,6241,4,4,8,1,1613,1,7,5
1,6241,4,5,43,2,996,6,7,8
1,6241,4,6,39,3,962,7,5,8
1,6241,4,7,30,3,985,3,2,1
1,6241,4,8,17,1,1254,8,2,4
1,6241,5,1,32,1,922,1,4,2
1,6241,5,2,18,1,737,8,4,2
1,6241,5,3,29,3,1615,3,1,2
1,6241,5,4,7,3,1178,1,5,7
1,6241,5,5,37,3,1770,5,7,8
1,6241,5,6,1,3,1234,1,3,7
1,6241,5,7,23,2,1058,8,2,6
1,6241,5,8,46,2,1958,7,8,6
1,6241,6,1,35,2,1558,4,1,2
1,6241,6,2,28,3,1598,2,3,1
1,6241,6,3,20,2,1470,2,8,6
1,6241,6,4,10,2,849,5,7,1
1,6241,6,5,3,2,1451,3,1,7
1,6241,6,6,42,2,1128,8,7,5
1,6241,6,7,16,2,1575,4,8,2
1,6241,6,8,44,3,2060,6,8,7
1,6241,7,1,24,3,1078,8,6,2
1,6241,7,2,9,2,2190,5,1,7
1,6241,7,3,31,1,899,1,2,4
1,6241,7,4,47,2,5715,8,6,7
1,6241,7,5,5,1,1660,7,1,3
1,6241,7,6,27,2,1288,2,1,3
1,6241,7,7,17,1,1188,8,2,4
1,6241,7,8,38,1,3267,5,8,7
1,6241,8,1,22,2,4020,6,8,2
1,6241,8,2,18,1,2213,8,4,2
1,6241,8,3,3,3,1332,3,1,7
1,6241,8,4,33,3,2694,2,1,4
1,6241,8,5,10,3,5670,5,7,1
1,6241,8,6,48,2,666,8,7,6
1,6241,8,7,42,1,1440,8,7,5
1,6241,8,8,25,2,2309,1,2,3
1,6241,9,1,11,2,600,7,1,5
1,6241,9,2,28,3,1376,2,3,1
1,6241,9,3,16,3,1206,4,8,2
1,6241,9,4,44,3,1048,6,8,7
1,6241,9,5,34,3,1462,2,4,1
1,6241,9,6,39,3,1447,7,5,8
1,6241,9,7,21,2,3984,6,2,8
1,6241,9,8,6,3,4213,7,3,1
1,6241,10,1,20,2,1141,2,8,6
1,6241,10,2,46,2,4329,7,8,6
1,6241,10,3,37,2,1489,5,7,8
1,6241,10,4,15,3,5139,4,2,8
1,6241,10,5,4,2,2841,3,7,1
1,6241,10,6,36,3,853,4,2,1
1,6241,10,7,12,2,1807,7,5,1
1,6241,10,8,29,3,1874,3,1,2
1,6241,11,1,45,1,1621,7,6,8
1,6241,11,2,35,2,3921,4,1,2
1,6241,11,3,26,3,2021,1,3,2
1,6241,11,4,2,2,1804,1,7,3
1,6241,11,5,7,1,3365,1,5,7
1,6241,11,6,14,2,1235,2,8,4
1,6241,11,7,40,2,1097,7,8,5
1,6241,11,8,23,2,1588,8,2,6
1,6241,12,1,1,3,2149,1,3,7
1,6241,12,2,41,1,1552,8,5,7
1,6241,12,3,32,1,1522,1,4,2
1,6241,12,4,13,3,965,2,4,8
1,6241,12,5,8,1,1055,1,7,5
1,6241,12,6,30,3,1301,3,2,1
1,6241,12,7,43,2,1041,6,7,8
1,6241,12,8,19,3,2336,2,6,8
1,6243,1,1,35,2,907,4,1,2
1,6243,1,2,19,1,744,2,6,8
1,6243,1,3,6,3,762,7,3,1
1,6243,1,4,47,2,1180,8,6,7
1,6243,1,5,29,2,900,3,1,2
1,6243,1,6,16,2,634,4,8,2
1,6243,1,7,41,1,535,8,5,7
1,6243,1,8,11,1,769,7,1,5
1,6243,2,1,36,3,520,4,2,1
1,6243,2,2,7,1,476,1,5,7
1,6243,2,3,24,3,379,8,6,2
1,6243,2,4,25,1,530,1,2,3
1,6243,2,5,45,3,609,7,6,8
1,6243,2,6,15,3,700,4,2,8
1,6243,2,7,5,1,533,7,1,3
1,6243,2,8,39,3,490,7,5,8
1,6243,3,1,23,1,477,8,2,6
1,6243,3,2,31,1,524,1,2,4
1,6243,3,3,9,3,483,5,1,7
1,6243,3,4,17,1,964,8,2,4
1,6243,3,5,30,2,667,3,2,1
1,6243,3,6,43,2,625,6,7,8
1,6243,3,7,38,3,529,5,8,7
1,6243,3,8,2,2,662,1,7,3
1,6243,4,1,27,2,552,2,1,3
1,6243,4,2,3,3,587,3,1,7
1,6243,4,3,10,2,653,5,7,1
1,6243,4,4,20,2,494,2,8,6
1,6243,4,5,14,2,443,2,8,4
1,6243,4,6,33,2,584,2,1,4
1,6243,4,7,44,2,476,6,8,7
1,6243,4,8,37,3,1177,5,7,8
1,6243,5,1,12,3,793,7,5,1
1,6243,5,2,28,2,475,2,3,1
1,6243,5,3,1,3,513,1,3,7
1,6243,5,4,22,2,456,6,8,2
1,6243,5,5,13,3,429,2,4,8
1,6243,5,6,32,2,456,1,4,2
1,6243,5,7,42,2,592,8,7,5
1,6243,5,8,48,2,419,8,7,6
1,6243,6,1,4,2,448,3,7,1
1,6243,6,2,18,1,432,8,4,2
1,6243,6,3,26,2,649,1,3,2
1,6243,6,4,46,1,626,7,8,6
1,6243,6,5,40,2,549,7,8,5
1,6243,6,6,34,3,784,2,4,1
1,6243,6,7,21,3,719,6,2,8
1,6243,6,8,8,2,528,1,7,5
1,6243,7,1,45,1,515,7,6,8
1,6243,7,2,28,2,490,2,3,1
1,6243,7,3,42,2,568,8,7,5
1,6243,7,4,12,1,533,7,5,1
1,6243,7,5,1,3,539,1,3,7
1,6243,7,6,13,3,682,2,4,8
1,6243,7,7,32,1,929,1,4,2
1,6243,7,8,22,2,546,6,8,2
1,6243,8,1,48,2,459,8,7,6
1,6243,8,2,14,2,675,2,8,4
1,6243,8,3,34,3,1339,2,4,1
1,6243,8,4,38,1,740,5,8,7
1,6243,8,5,3,3,539,3,1,7
1,6243,8,6,9,3,962,5,1,7
1,6243,8,7,27,2,1202,2,1,3
1,6243,8,8,20,2,812,2,8,6
1,6243,9,1,47,1,596,8,6,7
1,6243,9,2,16,2,431,4,8,2
1,6243,9,3,35,2,705,4,1,2
1,6243,9,4,24,3,720,8,6,2
1,6243,9,5,41,1,515,8,5,7
1,6243,9,6,8,2,973,1,7,5
1,6243,9,7,26,3,620,1,3,2
1,6243,9,8,2,2,430,1,7,3
1,6243,10,1,18,1,551,8,4,2
1,6243,10,2,44,2,822,6,8,7
1,6243,10,3,25,2,1367,1,2,3
1,6243,10,4,19,3,518,2,6,8
1,6243,10,5,4,2,567,3,7,1
1,6243,10,6,36,3,1197,4,2,1
1,6243,10,7,40,1,895,7,8,5
1,6243,10,8,7,3,472,1,5,7
1,6243,11,1,15,3,556,4,2,8
1,6243,11,2,31,1,809,1,2,4
1,6243,11,3,11,1,497,7,1,5
1,6243,11,4,6,3,996,7,3,1
1,6243,11,5,21,2,1404,6,2,8
1,6243,11,6,37,3,1311,5,7,8
1,6243,11,7,46,1,736,7,8,6
1,6243,11,8,29,2,1613,3,1,2
1,6243,12,1,10,2,951,5,7,1
1,6243,12,2,39,1,873,7,5,8
1,6243,12,3,23,1,575,8,2,6
1,6243,12,4,43,3,856,6,7,8
1,6243,12,5,33,2,611,2,1,4
1,6243,12,6,5,1,483,7,1,3
1,6243,12,7,17,1,504,8,2,4
1,6243,12,8,30,2,676,3,2,1
1,6244,1,1,28,1,1849,2,3,1
1,6244,1,2,37,3,1621,5,7,8
1,6244,1,3,8,1,929,1,7,5
1,6244,1,4,23,2,1226,8,2,6
1,6244,1,5,44,3,1795,6,8,7
1,6244,1,6,18,3,2108,8,4,2
1,6244,1,7,4,3,2872,3,7,1
1,6244,1,8,31,1,1815,1,2,4
1,6244,2,1,6,1,4549,7,3,1
1,6244,2,2,47,2,2301,8,6,7
1,6244,2,3,33,2,3314,2,1,4
1,6244,2,4,7,1,1443,1,5,7
1,6244,2,5,26,3,3551,1,3,2
1,6244,2,6,22,3,1403,6,8,2
1,6244,2,7,14,1,1861,2,8,4
1,6244,2,8,40,2,1385,7,8,5
1,6244,3,1,11,2,1721,7,1,5
1,6244,3,2,39,3,1376,7,5,8
1,6244,3,3,19,2,2644,2,6,8
1,6244,3,4,13,3,1864,2,4,8
1,6244,3,5,32,1,1118,1,4,2
1,6244,3,6,30,3,1964,3,2,1
1,6244,3,7,2,2,1339,1,7,3
1,6244,3,8,45,1,1009,7,6,8
1,6244,4,1,5,1,731,7,1,3
1,6244,4,2,42,2,542,8,7,5
1,6244,4,3,36,3,1523,4,2,1
1,6244,4,4,48,2,1082,8,7,6
1,6244,4,5,21,2,1243,6,2,8
1,6244,4,6,15,3,708,4,2,8
1,6244,4,7,9,2,3705,5,1,7
1,6244,4,8,25,1,1309,1,2,3
1,6244,5,1,3,3,789,3,1,7
1,6244,5,2,38,2,1233,5,8,7
1,6244,5,3,29,3,807,3,1,2
1,6244,5,4,16,2,1741,4,8,2
1,6244,5,5,34,3,1168,2,4,1
1,6244,5,6,46,1,1187,7,8,6
1,6244,5,7,10,2,602,5,7,1
1,6244,5,8,24,2,4570,8,6,2
1,6244,6,1,27,2,1437,2,1,3
1,6244,6,2,12,3,1123,7,5,1
1,6244,6,3,20,1,828,2,8,6
1,6244,6,4,41,1,1152,8,5,7
1,6244,6,5,35,2,1011,4,1,2
1,6244,6,6,43,2,1247,6,7,8
1,6244,6,7,17,3,1835,8,2,4
1,6244,6,8,1,3,1843,1,3,7
1,6244,7,1,34,3,919,2,4,1
1,6244,7,2,40,2,1398,7,8,5
1,6244,7,3,4,2,1087,3,7,1
1,6244,7,4,26,2,1565,1,3,2
1,6244,7,5,44,3,610,6,8,7
1,6244,7,6,13,3,2016,2,4,8
1,6244,7,7,10,2,1250,5,7,1
1,6244,7,8,19,2,5326,2,6,8
1,6244,8,1,28,2,1533,2,3,1
1,6244,8,2,15,3,1237,4,2,8
1,6244,8,3,47,3,1533,8,6,7
1,6244,8,4,20,1,1583,2,8,6
1,6244,8,5,7,2,833,1,5,7
1,6244,8,6,41,2,3722,8,5,7
1,6244,8,7,35,2,1031,4,1,2
1,6244,8,8,3,3,1077,3,1,7
1,6244,9,1,32,1,759,1,4,2
1,6244,9,2,1,3,669,1,3,7
1,6244,9,3,24,3,2031,8,6,2
1,6244,9,4,39,3,1331,7,5,8
1,6244,9,5,11,1,1479,7,1,5
1,6244,9,6,45,1,747,7,6,8
1,6244,9,7,14,2,1171,2,8,4
1,6244,9,8,27,3,5467,2,1,3
1,6244,10,1,2,2,1010,1,7,3
1,6244,10,2,18,1,1398,8,4,2
1,6244,10,3,23,2,1218,8,2,6
1,6244,10,4,12,1,837,7,5,1
1,6244,10,5,30,2,1470,3,2,1
1,6244,10,6,37,2,1657,5,7,8
1,6244,10,7,36,3,1110,4,2,1
1,6244,10,8,43,2,1036,6,7,8
1,6244,11,1,9,2,2071,5,1,7
1,6244,11,2,6,1,1219,7,3,1
1,6244,11,3,38,2,1148,5,8,7
1,6244,11,4,21,2,1155,6,2,8
1,6244,11,5,46,1,692,7,8,6
1,6244,11,6,25,1,1907,1,2,3
1,6244,11,7,16,2,2714,4,8,2
1,6244,11,8,31,1,2567,1,2,4
1,6244,12,1,5,1,740,7,1,3
1,6244,12,2,33,2,1357,2,1,4
1,6244,12,3,17,1,735,8,2,4
1,6244,12,4,8,1,2576,1,7,5
1,6244,12,5,22,3,2116,6,8,2
1,6244,12,6,29,3,2163,3,1,2
1,6244,12,7,48,2,886,8,7,6
1,6244,12,8,42,2,428,8,7,5
1,6246,1,1,28,3,651,2,3,1
1,6246,1,2,48,2,745,8,7,6
1,6246,1,3,1,3,749,1,3,7
1,6246,1,4,35,2,662,4,1,2
1,6246,1,5,37,3,761,5,7,8
1,6246,1,6,9,2,525,5,1,7
1,6246,1,7,19,1,611,2,6,8
1,6246,1,8,18,1,728,8,4,2
1,6246,2,1,30,3,538,3,2,1
1,6246,2,2,38,3,515,5,8,7
1,6246,2,3,24,1,721,8,6,2
1,6246,2,4,34,3,653,2,4,1
1,6246,2,5,16,2,606,4,8,2
1,6246,2,6,6,1,406,7,3,1
1,6246,2,7,10,2,428,5,7,1
1,6246,2,8,43,1,1708,6,7,8
1,6246,3,1,12,3,505,7,5,1
1,6246,3,2,5,1,514,7,1,3
1,6246,3,3,41,3,1390,8,5,7
1,6246,3,4,46,1,526,7,8,6
1,6246,3,5,22,3,647,6,8,2
1,6246,3,6,36,3,512,4,2,1
1,6246,3,7,14,2,598,2,8,4
1,6246,3,8,27,1,697,2,1,3
1,6246,4,1,32,1,454,1,4,2
1,6246,4,2,42,1,1512,8,7,5
1,6246,4,3,3,3,796,3,1,7
1,6246,4,4,45,1,453,7,6,8
1,6246,4,5,20,1,776,2,8,6
1,6246,4,6,26,3,1124,1,3,2
1,6246,4,7,17,1,533,8,2,4
1,6246,4,8,8,2,480,1,7,5
1,6246,5,1,39,1,433,7,5,8
1,6246,5,2,31,1,581,1,2,4
1,6246,5,3,15,3,571,4,2,8
1,6246,5,4,47,3,611,8,6,7
1,6246,5,5,7,1,553,1,5,7
1,6246,5,6,29,3,549,3,1,2
1,6246,5,7,4,2,1309,3,7,1
1,6246,5,8,21,3,939,6,2,8
1,6246,6,1,2,2,528,1,7,3
1,6246,6,2,25,1,878,1,2,3
1,6246,6,3,11,1,900,7,1,5
1,6246,6,4,44,3,872,6,8,7
1,6246,6,5,40,1,629,7,8,5
1,6246,6,6,33,2,939,2,1,4
1,6246,6,7,23,2,1345,8,2,6
1,6246,6,8,13,3,816,2,4,8
1,6246,7,1,5,1,444,7,1,3
1,6246,7,2,27,1,1282,2,1,3
1,6246,7,3,36,3,717,4,2,1
1,6246,7,4,48,2,571,8,7,6
1,6246,7,5,38,3,590,5,8,7
1,6246,7,6,10,3,762,5,7,1
1,6246,7,7,24,3,469,8,6,2
1,6246,7,8,14,2,555,2,8,4
1,6246,8,1,28,1,579,2,3,1
1,6246,8,2,2,2,490,1,7,3
1,6246,8,3,22,3,576,6,8,2
1,6246,8,4,42,2,500,8,7,5
1,6246,8,5,12,3,815,7,5,1
1,6246,8,6,46,1,565,7,8,6
1,6246,8,7,13,3,550,2,4,8
1,6246,8,8,33,2,567,2,1,4
1,6246,9,1,40,2,925,7,8,5
1,6246,9,2,4,2,745,3,7,1
1,6246,9,3,45,1,490,7,6,8
1,6246,9,4,30,1,1184,3,2,1
1,6246,9,5,34,3,577,2,4,1
1,6246,9,6,23,2,529,8,2,6
1,6246,9,7,9,2,533,5,1,7
1,6246,9,8,15,1,688,4,2,8
1,6246,10,1,6,1,436,7,3,1
1,6246,10,2,37,2,682,5,7,8
1,6246,10,3,25,1,755,1,2,3
1,6246,10,4,32,1,612,1,4,2
1,6246,10,5,17,1,876,8,2,4
1,6246,10,6,7,3,890,1,5,7
1,6246,10,7,19,1,1176,2,6,8
1,6246,10,8,44,3,651,6,8,7
1,6246,11,1,3,3,459,3,1,7
1,6246,11,2,16,2,446,4,8,2
1,6246,11,3,43,2,460,6,7,8
1,6246,11,4,20,3,679,2,8,6
1,6246,11,5,29,3,1316,3,1,2
1,6246,11,6,8,2,603,1,7,5
1,6246,11,7,39,3,875,7,5,8
1,6246,11,8,35,2,2135,4,1,2
1,6246,12,1,26,1,940,1,3,2
1,6246,12,2,31,1,522,1,2,4
1,6246,12,3,21,3,709,6,2,8
1,6246,12,4,1,3,1288,1,3,7
1,6246,12,5,18,1,1375,8,4,2
1,6246,12,6,11,1,984,7,1,5
1,6246,12,7,47,3,798,8,6,7
1,6246,12,8,41,3,594,8,5,7
1,6248,1,1,19,1,1382,2,6,8
1,6248,1,2,8,1,1689,1,7,5
1,6248,1,3,31,1,2176,1,2,4
1,6248,1,4,30,3,2657,3,2,1
1,6248,1,5,41,2,934,8,5,7
1,6248,1,6,18,3,1523,8,4,2
1,6248,1,7,4,2,964,3,7,1
1,6248,1,8,46,3,688,7,8,6
1,6248,2,1,38,1,548,5,8,7
1,6248,2,2,6,2,1298,7,3,1
1,6248,2,3,22,1,1256,6,8,2
1,6248,2,4,43,2,800,6,7,8
1,6248,2,5,12,3,1548,7,5,1
1,6248,2,6,17,2,1208,8,2,4
1,6248,2,7,33,2,3675,2,1,4
1,6248,2,8,25,1,1013,1,2,3
1,6248,3,1,32,1,1715,1,4,2
1,6248,3,2,45,2,983,7,6,8
1,6248,3,3,26,3,1243,1,3,2
1,6248,3,4,23,2,713,8,2,6
1,6248,3,5,9,2,765,5,1,7
1,6248,3,6,3,2,901,3,1,7
1,6248,3,7,40,3,516,7,8,5
1,6248,3,8,15,2,1604,4,2,8
1,6248,4,1,27,1,862,2,1,3
1,6248,4,2,37,2,535,5,7,8
1,6248,4,3,1,1,781,1,3,7
1,6248,4,4,10,3,784,5,7,1
1,6248,4,5,16,2,641,4,8,2
1,6248,4,6,21,2,634,6,2,8
1,6248,4,7,35,2,565,4,1,2
1,6248,4,8,47,2,523,8,6,7
1,6248,5,1,11,2,495,7,1,5
1,6248,5,2,44,1,461,6,8,7
1,6248,5,3,39,2,619,7,5,8
1,6248,5,4,34,3,643,2,4,1
1,6248,5,5,2,2,577,1,7,3
1,6248,5,6,24,3,500,8,6,2
1,6248,5,7,29,3,714,3,1,2
1,6248,5,8,13,1,862,2,4,8
1,6248,6,1,36,3,642,4,2,1
1,6248,6,2,28,2,832,2,3,1
1,6248,6,3,42,2,846,8,7,5
1,6248,6,4,20,2,1299,2,8,6
1,6248,6,5,14,2,658,2,8,4
1,6248,6,6,48,3,603,8,7,6
1,6248,6,7,7,1,577,1,5,7
1,6248,6,8,5,2,586,7,1,3
1,6248,7,1,29,2,701,3,1,2
1,6248,7,2,31,1,464,1,2,4
1,6248,7,3,17,3,843,8,2,4
1,6248,7,4,6,3,444,7,3,1
1,6248,7,5,39,2,506,7,5,8
1,6248,7,6,21,2,595,6,2,8
1,6248,7,7,45,2,627,7,6,8
1,6248,7,8,12,3,487,7,5,1
1,6248,8,1,22,3,763,6,8,2
1,6248,8,2,26,3,1147,1,3,2
1,6248,8,3,18,3,998,8,4,2
1,6248,8,4,37,2,759,5,7,8
1,6248,8,5,33,2,877,2,1,4
1,6248,8,6,44,1,1356,6,8,7
1,6248,8,7,4,1,767,3,7,1
1,6248,8,8,11,2,784,7,1,5
1,6248,9,1,46,3,435,7,8,6
1,6248,9,2,1,1,425,1,3,7
1,6248,9,3,30,2,698,3,2,1
1,6248,9,4,16,2,787,4,8,2
1,6248,9,5,42,3,683,8,7,5
1,6248,9,6,9,2,634,5,1,7
1,6248,9,7,24,3,480,8,6,2
1,6248,9,8,35,2,480,4,1,2
1,6248,10,1,48,3,331,8,7,6
1,6248,10,2,27,2,476,2,1,3
1,6248,10,3,13,1,1429,2,4,8
1,6248,10,4,7,1,678,1,5,7
1,6248,10,5,23,2,532,8,2,6
1,6248,10,6,3,2,647,3,1,7
1,6248,10,7,34,3,589,2,4,1
1,6248,10,8,41,2,578,8,5,7
1,6248,11,1,28,3,996,2,3,1
1,6248,11,2,38,1,482,5,8,7
1,6248,11,3,5,2,558,7,1,3
1,6248,11,4,10,3,526,5,7,1
1,6248,11,5,20,1,450,2,8,6
1,6248,11,6,43,1,418,6,7,8
1,6248,11,7,14,1,479,2,8,4
1,6248,11,8,36,2,861,4,2,1
1,6248,12,1,8,1,612,1,7,5
1,6248,12,2,47,2,1157,8,6,7
1,6248,12,3,19,1,539,2,6,8
1,6248,12,4,25,1,569,1,2,3
1,6248,12,5,32,2,2116,1,4,2
1,6248,12,6,2,1,672,1,7,3
1,6248,12,7,15,2,929,4,2,8
1,6248,12,8,40,3,615,7,8,5
1,6249,1,1,1,3,529,1,3,7
1,6249,1,2,7,3,704,1,5,7
1,6249,1,3,44,3,432,6,8,7
1,6249,1,4,16,2,632,4,8,2
1,6249,1,5,33,2,482,2,1,4
1,6249,1,6,22,3,522,6,8,2
1,6249,1,7,25,2,754,1,2,3
1,6249,1,8,41,3,432,8,5,7
1,6249,2,1,13,3,438,2,4,8
1,6249,2,2,26,3,484,1,3,2
1,6249,2,3,8,2,690,1,7,5
1,6249,2,4,47,3,433,8,6,7
1,6249,2,5,36,2,666,4,2,1
1,6249,2,6,40,1,563,7,8,5
1,6249,2,7,6,1,479,7,3,1
1,6249,2,8,24,3,439,8,6,2
1,6249,3,1,38,3,572,5,8,7
1,6249,3,2,27,1,786,2,1,3
1,6249,3,3,31,2,659,1,2,4
1,6249,3,4,3,3,493,3,1,7
1,6249,3,5,12,3,961,7,5,1
1,6249,3,6,43,2,525,6,7,8
1,6249,3,7,21,2,1071,6,2,8
1,6249,3,8,18,1,1300,8,4,2
1,6249,4,1,10,3,673,5,7,1
1,6249,4,2,35,2,774,4,1,2
1,6249,4,3,5,1,546,7,1,3
1,6249,4,4,19,1,1222,2,6,8
1,6249,4,5,30,2,848,3,2,1
1,6249,4,6,14,2,554,2,8,4
1,6249,4,7,46,1,694,7,8,6
1,6249,4,8,37,3,443,5,7,8
1,6249,5,1,20,1,1218,2,8,6
1,6249,5,2,4,2,518,3,7,1
1,6249,5,3,45,1,537,7,6,8
1,6249,5,4,29,3,597,3,1,2
1,6249,5,5,42,2,447,8,7,5
1,6249,5,6,15,3,384,4,2,8
1,6249,5,7,34,2,501,2,4,1
1,6249,5,8,11,1,2549,7,1,5
1,6249,6,1,28,1,784,2,3,1
1,6249,6,2,2,2,402,1,7,3
1,6249,6,3,32,1,532,1,4,2
1,6249,6,4,17,1,485,8,2,4
1,6249,6,5,9,3,3217,5,1,7
1,6249,6,6,39,1,835,7,5,8
1,6249,6,7,48,2,574,8,7,6
1,6249,6,8,23,1,509,8,2,6
1,6249,7,1,29,3,509,3,1,2
1,6249,7,2,16,2,380,4,8,2
1,6249,7,3,11,1,850,7,1,5
1,6249,7,4,34,3,661,2,4,1
1,6249,7,5,20,1,1002,2,8,6
1,6249,7,6,4,2,503,3,7,1
1,6249,7,7,38,2,625,5,8,7
1,6249,7,8,43,2,482,6,7,8
1,6249,8,1,28,1,808,2,3,1
1,6249,8,2,5,1,653,7,1,3
1,6249,8,3,9,1,1575,5,1,7
1,6249,8,4,37,2,1025,5,7,8
1,6249,8,5,15,3,624,4,2,8
1,6249,8,6,19,1,1114,2,6,8
1,6249,8,7,46,1,853,7,8,6
1,6249,8,8,35,2,794,4,1,2
1,6249,9,1,42,2,806,8,7,5
1,6249,9,2,13,3,502,2,4,8
1,6249,9,3,3,3,507,3,1,7
1,6249,9,4,25,2,534,1,2,3
1,6249,9,5,31,2,576,1,2,4
1,6249,9,6,44,3,514,6,8,7
1,6249,9,7,12,1,1325,7,5,1
1,6249,9,8,21,2,759,6,2,8
1,6249,10,1,17,1,540,8,2,4
1,6249,10,2,22,3,661,6,8,2
1,6249,10,3,39,1,1158,7,5,8
1,6249,10,4,8,2,1244,1,7,5
1,6249,10,5,1,3,571,1,3,7
1,6249,10,6,27,1,659,2,1,3
1,6249,10,7,33,2,894,2,1,4
1,6249,10,8,47,3,962,8,6,7
1,6249,11,1,7,3,2104,1,5,7
1,6249,11,2,24,3,1635,8,6,2
1,6249,11,3,14,2,929,2,8,4
1,6249,11,4,40,2,723,7,8,5
1,6249,11,5,6,1,1048,7,3,1
1,6249,11,6,45,1,1675,7,6,8
1,6249,11,7,26,3,632,1,3,2
1,6249,11,8,36,2,598,4,2,1
1,6249,12,1,30,2,608,3,2,1
1,6249,12,2,18,1,1153,8,4,2
1,6249,12,3,48,2,765,8,7,6
1,6249,12,4,2,2,372,1,7,3
1,6249,12,5,41,3,390,8,5,7
1,6249,12,6,10,2,375,5,7,1
1,6249,12,7,32,1,575,1,4,2
1,6249,12,8,23,1,999,8,2,6
1,6250,1,1,1,3,2142,1,3,7
1,6250,1,2,34,3,2092,2,4,1
1,6250,1,3,29,3,1548,3,1,2
1,6250,1,4,38,3,1343,5,8,7
1,6250,1,5,47,3,570,8,6,7
1,6250,1,6,19,1,2242,2,6,8
1,6250,1,7,14,2,1132,2,8,4
1,6250,1,8,9,2,1491,5,1,7
1,6250,2,1,32,2,1696,1,4,2
1,6250,2,2,37,2,1896,5,7,8
1,6250,2,3,2,2,1260,1,7,3
1,6250,2,4,13,3,2725,2,4,8
1,6250,2,5,28,2,1304,2,3,1
1,6250,2,6,7,3,1008,1,5,7
1,6250,2,7,21,1,2180,6,2,8
1,6250,2,8,45,1,644,7,6,8
1,6250,3,1,41,3,623,8,5,7
1,6250,3,2,4,2,407,3,7,1
1,6250,3,3,43,2,488,6,7,8
1,6250,3,4,25,3,1582,1,2,3
1,6250,3,5,31,1,1525,1,2,4
1,6250,3,6,10,3,1127,5,7,1
1,6250,3,7,24,3,1464,8,6,2
1,6250,3,8,16,2,1855,4,8,2
1,6250,4,1,22,3,826,6,8,2
1,6250,4,2,36,3,891,4,2,1
1,6250,4,3,27,3,1853,2,1,3
1,6250,4,4,17,2,2651,8,2,4
1,6250,4,5,40,2,1622,7,8,5
1,6250,4,6,5,1,1275,7,1,3
1,6250,4,7,12,3,2087,7,5,1
1,6250,4,8,46,1,1501,7,8,6
1,6250,5,1,18,1,1126,8,4,2
1,6250,5,2,8,1,1269,1,7,5
1,6250,5,3,20,3,1260,2,8,6
1,6250,5,4,48,2,723,8,7,6
1,6250,5,5,39,1,475,7,5,8
1,6250,5,6,3,3,1512,3,1,7
1,6250,5,7,26,3,1685,1,3,2
1,6250,5,8,35,2,1239,4,1,2
1,6250,6,1,44,3,823,6,8,7
1,6250,6,2,15,1,1279,4,2,8
1,6250,6,3,30,1,1399,3,2,1
1,6250,6,4,42,2,2247,8,7,5
1,6250,6,5,23,2,1988,8,2,6
1,6250,6,6,33,2,1501,2,1,4
1,6250,6,7,11,1,888,7,1,5
1,6250,6,8,6,1,464,7,3,1
1,6250,7,1,21,2,1689,6,2,8
1,6250,7,2,9,2,726,5,1,7
1,6250,7,3,13,1,832,2,4,8
1,6250,7,4,31,1,566,1,2,4
1,6250,7,5,46,1,1063,7,8,6
1,6250,7,6,3,3,509,3,1,7
1,6250,7,7,38,2,770,5,8,7
1,6250,7,8,28,3,890,2,3,1
1,6250,8,1,23,2,1083,8,2,6
1,6250,8,2,8,3,449,1,7,5
1,6250,8,3,30,1,887,3,2,1
1,6250,8,4,35,2,887,4,1,2
1,6250,8,5,48,2,901,8,7,6
1,6250,8,6,41,3,681,8,5,7
1,6250,8,7,15,1,723,4,2,8
1,6250,8,8,1,3,459,1,3,7
1,6250,9,1,47,3,434,8,6,7
1,6250,9,2,5,1,526,7,1,3
1,6250,9,3,39,3,974,7,5,8
1,6250,9,4,20,1,1337,2,8,6
1,6250,9,5,18,2,1854,8,4,2
1,6250,9,6,7,1,1241,1,5,7
1,6250,9,7,33,2,1320,2,1,4
1,6250,9,8,27,1,1728,2,1,3
1,6250,10,1,44,3,831,6,8,7
1,6250,10,2,6,1,1103,7,3,1
1,6250,10,3,40,2,876,7,8,5
1,6250,10,4,29,3,2666,3,1,2
1,6250,10,5,14,3,1189,2,8,4
1,6250,10,6,11,2,1123,7,1,5
1,6250,10,7,22,1,1069,6,8,2
1,6250,10,8,32,1,1683,1,4,2
1,6250,11,1,45,1,1246,7,6,8
1,6250,11,2,25,2,1797,1,2,3
1,6250,11,3,42,3,913,8,7,5
1,6250,11,4,2,2,608,1,7,3
1,6250,11,5,17,3,906,8,2,4
1,6250,11,6,19,2,586,2,6,8
1,6250,11,7,36,1,996,4,2,1
1,6250,11,8,12,3,802,7,5,1
1,6250,12,1,24,3,1114,8,6,2
1,6250,12,2,4,2,1592,3,7,1
1,6250,12,3,26,3,1163,1,3,2
1,6250,12,4,37,3,813,5,7,8
1,6250,12,5,10,3,701,5,7,1
1,6250,12,6,34,3,787,2,4,1
1,6250,12,7,16,2,1405,4,8,2
1,6250,12,8,43,3,1372,6,7,8
1,6251,1,1,24,3,800,8,6,2
1,6251,1,2,43,2,651,6,7,8
1,6251,1,3,26,3,630,1,3,2
1,6251,1,4,11,2,435,7,1,5
1,6251,1,5,40,1,476,7,8,5
1,6251,1,6,3,3,384,3,1,7
1,6251,1,7,14,2,502,2,8,4
1,6251,1,8,33,2,764,2,1,4
1,6251,2,1,44,3,419,6,8,7
1,6251,2,2,38,3,433,5,8,7
1,6251,2,3,20,1,669,2,8,6
1,6251,2,4,34,3,976,2,4,1
1,6251,2,5,12,1,646,7,5,1
1,6251,2,6,30,1,1160,3,2,1
1,6251,2,7,2,2,554,1,7,3
1,6251,2,8,17,1,598,8,2,4
1,6251,3,1,25,2,1062,1,2,3
1,6251,3,2,41,3,1166,8,5,7
1,6251,3,3,4,2,471,3,7,1
1,6251,3,4,35,2,692,4,1,2
1,6251,3,5,7,3,510,1,5,7
1,6251,3,6,21,2,548,6,2,8
1,6251,3,7,18,1,537,8,4,2
1,6251,3,8,46,1,657,7,8,6
1,6251,4,1,32,1,357,1,4,2
1,6251,4,2,19,1,1059,2,6,8
1,6251,4,3,13,3,919,2,4,8
1,6251,4,4,27,1,643,2,1,3
1,6251,4,5,39,1,909,7,5,8
1,6251,4,6,45,1,437,7,6,8
1,6251,4,7,9,3,764,5,1,7
1,6251,4,8,1,3,460,1,3,7
1,6251,5,1,16,2,687,4,8,2
1,6251,5,2,22,2,1060,6,8,2
1,6251,5,3,37,2,1678,5,7,8
1,6251,5,4,8,2,674,1,7,5
1,6251,5,5,48,2,736,8,7,6
1,6251,5,6,36,3,780,4,2,1
1,6251,5,7,5,1,488,7,1,3
1,6251,5,8,29,1,1049,3,1,2
1,6251,6,1,15,3,387,4,2,8
1,6251,6,2,23,1,551,8,2,6
1,6251,6,3,31,1,839,1,2,4
1,6251,6,4,28,3,524,2,3,1
1,6251,6,5,10,3,1126,5,7,1
1,6251,6,6,47,3,460,8,6,7
1,6251,6,7,6,1,376,7,3,1
1,6251,6,8,42,1,1231,8,7,5
1,6251,7,1,17,1,1803,8,2,4
1,6251,7,2,24,3,803,8,6,2
1,6251,7,3,38,2,553,5,8,7
1,6251,7,4,36,3,577,4,2,1
1,6251,7,5,29,3,954,3,1,2
1,6251,7,6,8,1,1371,1,7,5
1,6251,7,7,3,3,2460,3,1,7
1,6251,7,8,45,1,856,7,6,8
1,6251,8,1,31,1,506,1,2,4
1,6251,8,2,30,1,381,3,2,1
1,6251,8,3,11,2,1163,7,1,5
1,6251,8,4,39,3,1012,7,5,8
1,6251,8,5,44,3,2330,6,8,7
1,6251,8,6,5,1,597,7,1,3
1,6251,8,7,22,1,593,6,8,2
1,6251,8,8,18,1,657,8,4,2
1,6251,9,1,9,3,1020,5,1,7
1,6251,9,2,25,2,1148,1,2,3
1,6251,9,3,2,2,571,1,7,3
1,6251,9,4,34,3,756,2,4,1
1,6251,9,5,23,2,1620,8,2,6
1,6251,9,6,46,1,705,7,8,6
1,6251,9,7,13,3,456,2,4,8
1,6251,9,8,37,3,1132,5,7,8
1,6251,10,1,33,2,657,2,1,4
1,6251,10,2,6,1,357,7,3,1
1,6251,10,3,12,1,891,7,5,1
1,6251,10,4,16,2,437,4,8,2
1,6251,10,5,28,3,524,2,3,1
1,6251,10,6,43,2,989,6,7,8
1,6251,10,7,40,1,389,7,8,5
1,6251,10,8,20,1,1126,2,8,6
1,6251,11,1,1,3,377,1,3,7
1,6251,11,2,47,3,363,8,6,7
1,6251,11,3,10,3,1429,5,7,1
1,6251,11,4,15,3,963,4,2,8
1,6251,11,5,35,2,1101,4,1,2
1,6251,11,6,41,3,462,8,5,7
1,6251,11,7,27,1,2460,2,1,3
1,6251,11,8,19,1,919,2,6,8
1,6251,12,1,48,2,491,8,7,6
1,6251,12,2,7,3,388,1,5,7
1,6251,12,3,42,2,345,8,7,5
1,6251,12,4,21,1,603,6,2,8
1,6251,12,5,26,3,1236,1,3,2
1,6251,12,6,32,1,501,1,4,2
1,6251,12,7,14,2,466,2,8,4
1,6251,12,8,4,2,408,3,7,1
1,6252,1,1,19,1,615,2,6,8
1,6252,1,2,42,1,739,8,7,5
1,6252,1,3,43,3,838,6,7,8
1,6252,1,4,34,3,911,2,4,1
1,6252,1,5,25,2,445,1,2,3
1,6252,1,6,6,2,491,7,3,1
1,6252,1,7,16,2,567,4,8,2
1,6252,1,8,10,3,1004,5,7,1
1,6252,2,1,15,2,518,4,2,8
1,6252,2,2,2,1,974,1,7,3
1,6252,2,3,33,1,501,2,1,4
1,6252,2,4,8,2,757,1,7,5
1,6252,2,5,30,2,515,3,2,1
1,6252,2,6,44,2,519,6,8,7
1,6252,2,7,22,2,386,6,8,2
1,6252,2,8,40,2,421,7,8,5
1,6252,3,1,35,3,734,4,1,2
1,6252,3,2,47,1,706,8,6,7
1,6252,3,3,20,1,661,2,8,6
1,6252,3,4,18,1,1523,8,4,2
1,6252,3,5,26,3,1407,1,3,2
1,6252,3,6,3,3,608,3,1,7
1,6252,3,7,11,1,497,7,1,5
1,6252,3,8,41,1,719,8,5,7
1,6252,4,1,36,2,581,4,2,1
1,6252,4,2,9,2,1621,5,1,7
1,6252,4,3,39,3,529,7,5,8
1,6252,4,4,45,3,762,7,6,8
1,6252,4,5,17,1,493,8,2,4
1,6252,4,6,28,1,510,2,3,1
1,6252,4,7,23,1,612,8,2,6
1,6252,4,8,5,1,461,7,1,3
1,6252,5,1,29,3,526,3,1,2
1,6252,5,2,32,1,1297,1,4,2
1,6252,5,3,4,2,511,3,7,1
1,6252,5,4,12,1,437,7,5,1
1,6252,5,5,46,2,976,7,8,6
1,6252,5,6,14,2,369,2,8,4
1,6252,5,7,24,1,373,8,6,2
1,6252,5,8,37,3,472,5,7,8
1,6252,6,1,7,1,764,1,5,7
1,6252,6,2,31,2,464,1,2,4
1,6252,6,3,38,2,381,5,8,7
1,6252,6,4,21,3,430,6,2,8
1,6252,6,5,1,3,484,1,3,7
1,6252,6,6,13,3,431,2,4,8
1,6252,6,7,48,1,424,8,7,6
1,6252,6,8,27,1,590,2,1,3
1,6252,7,1,37,3,455,5,7,8
1,6252,7,2,19,1,453,2,6,8
1,6252,7,3,4,2,510,3,7,1
1,6252,7,4,12,1,577,7,5,1
1,6252,7,5,36,2,436,4,2,1
1,6252,7,6,14,2,463,2,8,4
1,6252,7,7,45,3,957,7,6,8
1,6252,7,8,29,3,966,3,1,2
1,6252,8,1,44,2,877,6,8,7
1,6252,8,2,6,1,483,7,3,1
1,6252,8,3,38,2,444,5,8,7
1,6252,8,4,9,3,890,5,1,7
1,6252,8,5,31,2,693,1,2,4
1,6252,8,6,22,2,478,6,8,2
1,6252,8,7,15,3,638,4,2,8
1,6252,8,8,28,1,503,2,3,1
1,6252,9,1,11,1,504,7,1,5
1,6252,9,2,5,1,380,7,1,3
1,6252,9,3,42,1,487,8,7,5
1,6252,9,4,16,2,448,4,8,2
1,6252,9,5,33,2,645,2,1,4
1,6252,9,6,23,1,366,8,2,6
1,6252,9,7,27,1,546,2,1,3
1,6252,9,8,48,1,521,8,7,6
1,6252,10,1,10,2,539,5,7,1
1,6252,10,2,41,1,599,8,5,7
1,6252,10,3,35,3,733,4,1,2
1,6252,10,4,18,1,494,8,4,2
1,6252,10,5,2,2,385,1,7,3
1,6252,10,6,47,1,351,8,6,7
1,6252,10,7,30,2,365,3,2,1
1,6252,10,8,20,2,379,2,8,6
1,6252,11,1,43,3,628,6,7,8
1,6252,11,2,24,1,378,8,6,2
1,6252,11,3,40,2,413,7,8,5
1,6252,11,4,26,3,491,1,3,2
1,6252,11,5,13,3,388,2,4,8
1,6252,11,6,34,2,396,2,4,1
1,6252,11,7,1,3,586,1,3,7
1,6252,11,8,7,3,438,1,5,7
1,6252,12,1,17,1,412,8,2,4
1,6252,12,2,3,3,503,3,1,7
1,6252,12,3,25,2,327,1,2,3
1,6252,12,4,39,3,456,7,5,8
1,6252,12,5,8,2,403,1,7,5
1,6252,12,6,32,3,471,1,4,2
1,6252,12,7,46,2,301,7,8,6
1,6252,12,8,21,3,504,6,2,8
1,6253,1,1,16,2,515,4,8,2
1,6253,1,2,7,3,1454,1,5,7
1,6253,1,3,33,2,497,2,1,4
1,6253,1,4,46,1,415,7,8,6
1,6253,1,5,19,3,477,2,6,8
1,6253,1,6,5,1,435,7,1,3
1,6253,1,7,41,3,851,8,5,7
1,6253,1,8,26,2,1188,1,3,2
1,6253,2,1,47,3,473,8,6,7
1,6253,2,2,6,1,340,7,3,1
1,6253,2,3,22,3,767,6,8,2
1,6253,2,4,42,1,792,8,7,5
1,6253,2,5,31,1,705,1,2,4
1,6253,2,6,29,1,513,3,1,2
1,6253,2,7,10,3,636,5,7,1
1,6253,2,8,17,1,552,8,2,4
1,6253,3,1,1,3,451,1,3,7
1,6253,3,2,24,3,649,8,6,2
1,6253,3,3,30,2,852,3,2,1
1,6253,3,4,13,3,544,2,4,8
1,6253,3,5,37,3,747,5,7,8
1,6253,3,6,32,1,847,1,4,2
1,6253,3,7,48,2,842,8,7,6
1,6253,3,8,8,1,640,1,7,5
1,6253,4,1,43,2,1092,6,7,8
1,6253,4,2,21,3,2229,6,2,8
1,6253,4,3,14,2,604,2,8,4
1,6253,4,4,35,2,622,4,1,2
1,6253,4,5,28,3,1404,2,3,1
1,6253,4,6,38,2,1179,5,8,7
1,6253,4,7,2,2,1708,1,7,3
1,6253,4,8,9,3,933,5,1,7
1,6253,5,1,4,2,780,3,7,1
1,6253,5,2,34,3,583,2,4,1
1,6253,5,3,40,2,765,7,8,5
1,6253,5,4,11,2,459,7,1,5
1,6253,5,5,23,2,540,8,2,6
1,6253,5,6,27,3,885,2,1,3
1,6253,5,7,44,3,535,6,8,7
1,6253,5,8,15,3,610,4,2,8
1,6253,6,1,36,3,497,4,2,1
1,6253,6,2,18,1,623,8,4,2
1,6253,6,3,20,1,955,2,8,6
1,6253,6,4,12,2,441,7,5,1
1,6253,6,5,39,3,1092,7,5,8
1,6253,6,6,45,3,597,7,6,8
1,6253,6,7,3,3,784,3,1,7
1,6253,6,8,25,2,1399,1,2,3
1,6253,7,1,14,2,544,2,8,4
1,6253,7,2,35,2,574,4,1,2
1,6253,7,3,9,3,962,5,1,7
1,6253,7,4,29,2,1191,3,1,2
1,6253,7,5,37,3,957,5,7,8
1,6253,7,6,24,3,790,8,6,2
1,6253,7,7,44,3,993,6,8,7
1,6253,7,8,1,3,592,1,3,7
1,6253,8,1,31,1,868,1,2,4
1,6253,8,2,21,1,861,6,2,8
1,6253,8,3,17,3,747,8,2,4
1,6253,8,4,48,2,561,8,7,6
1,6253,8,5,25,3,650,1,2,3
1,6253,8,6,10,3,655,5,7,1
1,6253,8,7,39,3,703,7,5,8
1,6253,8,8,2,2,515,1,7,3
1,6253,9,1,38,2,812,5,8,7
1,6253,9,2,34,3,549,2,4,1
1,6253,9,3,6,1,470,7,3,1
1,6253,9,4,20,1,668,2,8,6
1,6253,9,5,27,3,930,2,1,3
1,6253,9,6,16,2,579,4,8,2
1,6253,9,7,45,1,657,7,6,8
1,6253,9,8,11,1,692,7,1,5
1,6253,10,1,3,3,430,3,1,7
1,6253,10,2,22,1,686,6,8,2
1,6253,10,3,15,3,527,4,2,8
1,6253,10,4,7,3,490,1,5,7
1,6253,10,5,36,3,610,4,2,1
1,6253,10,6,30,3,563,3,2,1
1,6253,10,7,46,1,555,7,8,6
1,6253,10,8,40,2,671,7,8,5
1,6253,11,1,18,3,603,8,4,2
1,6253,11,2,19,3,678,2,6,8
1,6253,11,3,43,2,359,6,7,8
1,6253,11,4,42,2,664,8,7,5
1,6253,11,5,26,1,691,1,3,2
1,6253,11,6,8,1,676,1,7,5
1,6253,11,7,5,2,751,7,1,3
1,6253,11,8,32,1,517,1,4,2
1,6253,12,1,12,3,699,7,5,1
1,6253,12,2,47,3,1228,8,6,7
1,6253,12,3,4,3,800,3,7,1
1,6253,12,4,33,2,723,2,1,4
1,6253,12,5,23,3,822,8,2,6
1,6253,12,6,13,3,640,2,4,8
1,6253,12,7,28,3,2278,2,3,1
1,6253,12,8,41,3,535,8,5,7
1,6254,1,1,16,2,711,4,8,2
1,6254,1,2,31,3,768,1,2,4
1,6254,1,3,47,3,586,8,6,7
1,6254,1,4,22,3,835,6,8,2
1,6254,1,5,10,3,678,5,7,1
1,6254,1,6,30,3,750,3,2,1
1,6254,1,7,3,3,535,3,1,7
1,6254,1,8,39,3,1818,7,5,8
1,6254,2,1,18,3,506,8,4,2
1,6254,2,2,21,2,617,6,2,8
1,6254,2,3,33,2,554,2,1,4
1,6254,2,4,48,2,1505,8,7,6
1,6254,2,5,26,1,1243,1,3,2
1,6254,2,6,1,3,617,1,3,7
1,6254,2,7,41,3,667,8,5,7
1,6254,2,8,11,2,1805,7,1,5
1,6254,3,1,44,3,662,6,8,7
1,6254,3,2,19,1,709,2,6,8
1,6254,3,3,9,2,2412,5,1,7
1,6254,3,4,14,2,1340,2,8,4
1,6254,3,5,37,3,1205,5,7,8
1,6254,3,6,6,1,780,7,3,1
1,6254,3,7,36,3,725,4,2,1
1,6254,3,8,27,1,1172,2,1,3
1,6254,4,1,24,3,462,8,6,2
1,6254,4,2,28,1,799,2,3,1
1,6254,4,3,2,2,526,1,7,3
1,6254,4,4,38,2,1198,5,8,7
1,6254,4,5,7,3,1877,1,5,7
1,6254,4,6,43,2,520,6,7,8
1,6254,4,7,35,2,630,4,1,2
1,6254,4,8,13,3,922,2,4,8
1,6254,5,1,45,1,494,7,6,8
1,6254,5,2,40,1,734,7,8,5
1,6254,5,3,4,2,1318,3,7,1
1,6254,5,4,15,3,644,4,2,8
1,6254,5,5,23,3,1652,8,2,6
1,6254,5,6,34,3,1100,2,4,1
1,6254,5,7,25,3,1636,1,2,3
1,6254,5,8,8,2,1000,1,7,5
1,6254,6,1,29,3,800,3,1,2
1,6254,6,2,5,1,543,7,1,3
1,6254,6,3,17,1,942,8,2,4
1,6254,6,4,42,1,1383,8,7,5
1,6254,6,5,12,3,585,7,5,1
1,6254,6,6,32,1,732,1,4,2
1,6254,6,7,46,2,1204,7,8,6
1,6254,6,8,20,3,876,2,8,6
1,6254,7,1,14,2,912,2,8,4
1,6254,7,2,43,2,675,6,7,8
1,6254,7,3,28,1,855,2,3,1
1,6254,7,4,6,1,733,7,3,1
1,6254,7,5,10,3,475,5,7,1
1,6254,7,6,24,3,693,8,6,2
1,6254,7,7,35,2,630,4,1,2
1,6254,7,8,40,2,785,7,8,5
1,6254,8,1,25,2,662,1,2,3
1,6254,8,2,13,3,581,2,4,8
1,6254,8,3,2,2,598,1,7,3
1,6254,8,4,38,2,730,5,8,7
1,6254,8,5,12,3,540,7,5,1
1,6254,8,6,33,2,558,2,1,4
1,6254,8,7,47,3,547,8,6,7
1,6254,8,8,19,3,733,2,6,8
1,6254,9,1,39,3,646,7,5,8
1,6254,9,2,17,1,1418,8,2,4
1,6254,9,3,36,3,553,4,2,1
1,6254,9,4,45,3,1212,7,6,8
1,6254,9,5,27,1,1355,2,1,3
1,6254,9,6,3,3,1001,3,1,7
1,6254,9,7,7,1,1219,1,5,7
1,6254,9,8,23,2,894,8,2,6
1,6254,10,1,4,2,452,3,7,1
1,6254,10,2,15,3,484,4,2,8
1,6254,10,3,34,2,1651,2,4,1
1,6254,10,4,37,3,1073,5,7,8
1,6254,10,5,30,2,883,3,2,1
1,6254,10,6,9,2,581,5,1,7
1,6254,10,7,21,2,619,6,2,8
1,6254,10,8,46,1,954,7,8,6
1,6254,11,1,42,1,1121,8,7,5
1,6254,11,2,26,2,983,1,3,2
1,6254,11,3,31,1,1194,1,2,4
1,6254,11,4,20,2,857,2,8,6
1,6254,11,5,44,3,716,6,8,7
1,6254,11,6,8,1,792,1,7,5
1,6254,11,7,1,3,739,1,3,7
1,6254,11,8,18,1,812,8,4,2
1,6254,12,1,32,1,624,1,4,2
1,6254,12,2,5,1,766,7,1,3
1,6254,12,3,48,2,756,8,7,6
1,6254,12,4,22,3,1149,6,8,2
1,6254,12,5,16,2,1060,4,8,2
1,6254,12,6,41,1,791,8,5,7
1,6254,12,7,29,3,814,3,1,2
1,6254,12,8,11,2,851,7,1,5
1,6255,1,1,12,3,642,7,5,1
1,6255,1,2,3,2,1169,3,1,7
1,6255,1,3,38,2,688,5,8,7
1,6255,1,4,30,3,1121,3,2,1
1,6255,1,5,32,1,764,1,4,2
1,6255,1,6,16,1,1093,4,8,2
1,6255,1,7,44,3,619,6,8,7
1,6255,1,8,19,1,484,2,6,8
1,6255,2,1,47,3,544,8,6,7
1,6255,2,2,9,2,542,5,1,7
1,6255,2,3,37,3,533,5,7,8
1,6255,2,4,20,1,560,2,8,6
1,6255,2,5,35,2,1195,4,1,2
1,6255,2,6,28,2,1062,2,3,1
1,6255,2,7,5,2,538,7,1,3
1,6255,2,8,17,1,811,8,2,4
1,6255,3,1,4,2,634,3,7,1
1,6255,3,2,14,2,537,2,8,4
1,6255,3,3,11,2,1332,7,1,5
1,6255,3,4,45,1,627,7,6,8
1,6255,3,5,34,3,1387,2,4,1
1,6255,3,6,22,3,855,6,8,2
1,6255,3,7,26,1,485,1,3,2
1,6255,3,8,40,1,619,7,8,5
1,6255,4,1,27,1,1341,2,1,3
1,6255,4,2,15,3,526,4,2,8
1,6255,4,3,41,1,908,8,5,7
1,6255,4,4,6,1,658,7,3,1
1,6255,4,5,21,2,643,6,2,8
1,6255,4,6,33,1,1041,2,1,4
1,6255,4,7,46,1,1186,7,8,6
1,6255,4,8,7,1,480,1,5,7
1,6255,5,1,18,2,7201,8,4,2
1,6255,5,2,8,2,610,1,7,5
1,6255,5,3,24,3,403,8,6,2
1,6255,5,4,31,1,380,1,2,4
1,6255,5,5,29,2,738,3,1,2
1,6255,5,6,43,2,792,6,7,8
1,6255,5,7,42,2,884,8,7,5
1,6255,5,8,1,1,388,1,3,7
1,6255,6,1,36,3,683,4,2,1
1,6255,6,2,48,1,699,8,7,6
1,6255,6,3,10,3,588,5,7,1
1,6255,6,4,23,2,408,8,2,6
1,6255,6,5,13,1,646,2,4,8
1,6255,6,6,2,2,514,1,7,3
1,6255,6,7,25,2,1837,1,2,3
1,6255,6,8,39,3,536,7,5,8
1,6255,7,1,45,3,738,7,6,8
1,6255,7,2,8,1,445,1,7,5
1,6255,7,3,26,3,916,1,3,2
1,6255,7,4,4,2,858,3,7,1
1,6255,7,5,38,2,459,5,8,7
1,6255,7,6,21,2,684,6,2,8
1,6255,7,7,31,1,485,1,2,4
1,6255,7,8,16,2,530,4,8,2
1,6255,8,1,32,1,449,1,4,2
1,6255,8,2,48,2,426,8,7,6
1,6255,8,3,30,3,573,3,2,1
1,6255,8,4,10,2,531,5,7,1
1,6255,8,5,41,1,391,8,5,7
1,6255,8,6,24,3,426,8,6,2
1,6255,8,7,18,1,2284,8,4,2
1,6255,8,8,5,2,465,7,1,3
1,6255,9,1,14,2,506,2,8,4
1,6255,9,2,7,1,328,1,5,7
1,6255,9,3,47,3,620,8,6,7
1,6255,9,4,37,1,578,5,7,8
1,6255,9,5,27,1,965,2,1,3
1,6255,9,6,23,2,484,8,2,6
1,6255,9,7,33,2,527,2,1,4
1,6255,9,8,6,1,488,7,3,1
1,6255,10,1,28,1,819,2,3,1
1,6255,10,2,13,3,1102,2,4,8
1,6255,10,3,36,2,605,4,2,1
1,6255,10,4,12,1,525,7,5,1
1,6255,10,5,2,2,1006,1,7,3
1,6255,10,6,40,2,605,7,8,5
1,6255,10,7,20,1,723,2,8,6
1,6255,10,8,44,3,572,6,8,7
1,6255,11,1,19,3,493,2,6,8
1,6255,11,2,1,3,611,1,3,7
1,6255,11,3,17,1,473,8,2,4
1,6255,11,4,39,1,706,7,5,8
1,6255,11,5,29,3,608,3,1,2
1,6255,11,6,46,1,750,7,8,6
1,6255,11,7,9,2,514,5,1,7
1,6255,11,8,35,3,722,4,1,2
1,6255,12,1,3,3,782,3,1,7
1,6255,12,2,25,3,631,1,2,3
1,6255,12,3,34,1,805,2,4,1
1,6255,12,4,11,1,507,7,1,5
1,6255,12,5,22,3,662,6,8,2
1,6255,12,6,15,3,714,4,2,8
1,6255,12,7,43,1,944,6,7,8
1,6255,12,8,42,2,580,8,7,5
1,6256,1,1,26,1,2650,1,3,2
1,6256,1,2,38,2,1531,5,8,7
1,6256,1,3,32,1,951,1,4,2
1,6256,1,4,46,1,1899,7,8,6
1,6256,1,5,22,2,2245,6,8,2
1,6256,1,6,5,1,1290,7,1,3
1,6256,1,7,10,3,1350,5,7,1
1,6256,1,8,14,1,2164,2,8,4
1,6256,2,1,3,3,2231,3,1,7
1,6256,2,2,18,1,705,8,4,2
1,6256,2,3,35,2,1543,4,1,2
1,6256,2,4,24,1,708,8,6,2
1,6256,2,5,11,2,1261,7,1,5
1,6256,2,6,43,2,1846,6,7,8
1,6256,2,7,30,2,2586,3,2,1
1,6256,2,8,40,1,1079,7,8,5
1,6256,3,1,34,2,2080,2,4,1
1,6256,3,2,47,3,877,8,6,7
1,6256,3,3,1,3,794,1,3,7
1,6256,3,4,15,3,676,4,2,8
1,6256,3,5,25,2,1683,1,2,3
1,6256,3,6,37,3,1437,5,7,8
1,6256,3,7,20,2,773,2,8,6
1,6256,3,8,9,3,1360,5,1,7
1,6256,4,1,29,3,1425,3,1,2
1,6256,4,2,7,3,1010,1,5,7
1,6256,4,3,42,1,811,8,7,5
1,6256,4,4,48,2,1811,8,7,6
1,6256,4,5,2,2,839,1,7,3
1,6256,4,6,36,3,1623,4,2,1
1,6256,4,7,13,3,800,2,4,8
1,6256,4,8,21,3,1349,6,2,8
1,6256,5,1,4,2,906,3,7,1
1,6256,5,2,45,3,1197,7,6,8
1,6256,5,3,27,1,1668,2,1,3
1,6256,5,4,23,1,1008,8,2,6
1,6256,5,5,39,3,1549,7,5,8
1,6256,5,6,16,2,931,4,8,2
1,6256,5,7,33,2,1202,2,1,4
1,6256,5,8,8,2,1525,1,7,5
1,6256,6,1,31,1,811,1,2,4
1,6256,6,2,28,2,649,2,3,1
1,6256,6,3,44,2,1027,6,8,7
1,6256,6,4,17,1,999,8,2,4
1,6256,6,5,6,1,1572,7,3,1
1,6256,6,6,19,3,859,2,6,8
1,6256,6,7,12,2,7502,7,5,1
1,6256,6,8,41,1,2591,8,5,7
1,6256,7,1,9,2,1970,5,1,7
1,6256,7,2,45,3,1445,7,6,8
1,6256,7,3,27,1,908,2,1,3
1,6256,7,4,13,3,631,2,4,8
1,6256,7,5,36,2,1010,4,2,1
1,6256,7,6,21,3,891,6,2,8
1,6256,7,7,42,1,993,8,7,5
1,6256,7,8,5,1,1575,7,1,3
1,6256,8,1,41,1,809,8,5,7
1,6256,8,2,30,2,972,3,2,1
1,6256,8,3,16,2,784,4,8,2
1,6256,8,4,11,2,1008,7,1,5
1,6256,8,5,3,3,650,3,1,7
1,6256,8,6,23,1,3831,8,2,6
1,6256,8,7,33,2,640,2,1,4
1,6256,8,8,44,2,1035,6,8,7
1,6256,9,1,8,1,1212,1,7,5
1,6256,9,2,39,3,722,7,5,8
1,6256,9,3,25,2,699,1,2,3
1,6256,9,4,47,1,989,8,6,7
1,6256,9,5,6,1,827,7,3,1
1,6256,9,6,35,2,804,4,1,2
1,6256,9,7,19,3,828,2,6,8
1,6256,9,8,18,1,553,8,4,2
1,6256,10,1,46,1,1017,7,8,6
1,6256,10,2,15,3,599,4,2,8
1,6256,10,3,26,3,685,1,3,2
1,6256,10,4,24,1,646,8,6,2
1,6256,10,5,2,2,603,1,7,3
1,6256,10,6,34,3,1157,2,4,1
1,6256,10,7,10,3,735,5,7,1
1,6256,10,8,40,2,537,7,8,5
1,6256,11,1,22,3,1018,6,8,2
1,6256,11,2,32,1,1304,1,4,2
1,6256,11,3,17,1,752,8,2,4
1,6256,11,4,29,3,2621,3,1,2
1,6256,11,5,12,3,937,7,5,1
1,6256,11,6,43,3,993,6,7,8
1,6256,11,7,37,3,660,5,7,8
1,6256,11,8,1,3,521,1,3,7
1,6256,12,1,48,2,573,8,7,6
1,6256,12,2,14,2,744,2,8,4
1,6256,12,3,20,2,404,2,8,6
1,6256,12,4,31,2,1216,1,2,4
1,6256,12,5,4,2,678,3,7,1
1,6256,12,6,7,3,1093,1,5,7
1,6256,12,7,38,2,710,5,8,7
1,6256,12,8,28,1,936,2,3,1
1,6257,1,1,13,3,2986,2,4,8
1,6257,1,2,40,2,4076,7,8,5
1,6257,1,3,23,1,3990,8,2,6
1,6257,1,4,10,2,1920,5,7,1
1,6257,1,5,31,1,987,1,2,4
1,6257,1,6,30,2,996,3,2,1
1,6257,1,7,43,2,1917,6,7,8
1,6257,1,8,3,3,918,3,1,7
1,6257,2,1,12,3,1756,7,5,1
1,6257,2,2,45,3,1228,7,6,8
1,6257,2,3,37,3,960,5,7,8
1,6257,2,4,14,3,1584,2,8,4
1,6257,2,5,27,3,1579,2,1,3
1,6257,2,6,22,1,2415,6,8,2
1,6257,2,7,35,2,2539,4,1,2
1,6257,2,8,4,2,1086,3,7,1
1,6257,3,1,9,3,1292,5,1,7
1,6257,3,2,26,3,1660,1,3,2
1,6257,3,3,21,1,2067,6,2,8
1,6257,3,4,44,3,1108,6,8,7
1,6257,3,5,17,3,1299,8,2,4
1,6257,3,6,1,3,742,1,3,7
1,6257,3,7,32,3,1328,1,4,2
1,6257,3,8,38,3,1453,5,8,7
1,6257,4,1,34,3,902,2,4,1
1,6257,4,2,39,1,1025,7,5,8
1,6257,4,3,47,3,862,8,6,7
1,6257,4,4,24,2,1649,8,6,2
1,6257,4,5,8,1,999,1,7,5
1,6257,4,6,15,3,833,4,2,8
1,6257,4,7,2,2,914,1,7,3
1,6257,4,8,29,3,817,3,1,2
1,6257,5,1,7,3,916,1,5,7
1,6257,5,2,19,2,1303,2,6,8
1,6257,5,3,28,1,1218,2,3,1
1,6257,5,4,5,1,817,7,1,3
1,6257,5,5,46,1,765,7,8,6
1,6257,5,6,18,1,1085,8,4,2
1,6257,5,7,41,3,925,8,5,7
1,6257,5,8,33,2,964,2,1,4
1,6257,6,1,6,1,842,7,3,1
1,6257,6,2,48,2,1037,8,7,6
1,6257,6,3,42,1,1344,8,7,5
1,6257,6,4,11,1,650,7,1,5
1,6257,6,5,16,2,1290,4,8,2
1,6257,6,6,36,3,1021,4,2,1
1,6257,6,7,20,2,2520,2,8,6
1,6257,6,8,25,2,1022,1,2,3
1,6257,7,1,38,2,1527,5,8,7
1,6257,7,2,1,3,874,1,3,7
1,6257,7,3,19,2,1407,2,6,8
1,6257,7,4,34,3,808,2,4,1
1,6257,7,5,26,3,830,1,3,2
1,6257,7,6,8,1,917,1,7,5
1,6257,7,7,46,1,734,7,8,6
1,6257,7,8,17,1,670,8,2,4
1,6257,8,1,28,1,661,2,3,1
1,6257,8,2,10,3,774,5,7,1
1,6257,8,3,22,3,1220,6,8,2
1,6257,8,4,33,2,1684,2,1,4
1,6257,8,5,18,1,655,8,4,2
1,6257,8,6,39,3,595,7,5,8
1,6257,8,7,5,1,596,7,1,3
1,6257,8,8,45,3,918,7,6,8
1,6257,9,1,15,3,641,4,2,8
1,6257,9,2,7,1,1428,1,5,7
1,6257,9,3,48,2,1065,8,7,6
1,6257,9,4,31,1,626,1,2,4
1,6257,9,5,40,1,1045,7,8,5
1,6257,9,6,2,2,551,1,7,3
1,6257,9,7,20,1,956,2,8,6
1,6257,9,8,25,1,566,1,2,3
1,6257,10,1,11,1,1349,7,1,5
1,6257,10,2,23,2,1182,8,2,6
1,6257,10,3,41,3,1456,8,5,7
1,6257,10,4,14,2,798,2,8,4
1,6257,10,5,30,2,1109,3,2,1
1,6257,10,6,47,3,994,8,6,7
1,6257,10,7,4,2,656,3,7,1
1,6257,10,8,36,3,878,4,2,1
1,6257,11,1,3,3,866,3,1,7
1,6257,11,2,21,2,2370,6,2,8
1,6257,11,3,13,3,885,2,4,8
1,6257,11,4,27,1,696,2,1,3
1,6257,11,5,44,3,658,6,8,7
1,6257,11,6,42,2,1208,8,7,5
1,6257,11,7,9,2,1167,5,1,7
1,6257,11,8,35,2,716,4,1,2
1,6257,12,1,12,3,679,7,5,1
1,6257,12,2,29,3,670,3,1,2
1,6257,12,3,32,1,685,1,4,2
1,6257,12,4,37,3,705,5,7,8
1,6257,12,5,43,2,949,6,7,8
1,6257,12,6,24,3,670,8,6,2
1,6257,12,7,16,2,1106,4,8,2
1,6257,12,8,6,1,643,7,3,1
1,6258,1,1,48,2,755,8,7,6
1,6258,1,2,6,1,367,7,3,1
1,6258,1,3,38,3,1025,5,8,7
1,6258,1,4,31,2,764,1,2,4
1,6258,1,5,26,3,556,1,3,2
1,6258,1,6,14,1,407,2,8,4
1,6258,1,7,12,1,587,7,5,1
1,6258,1,8,22,3,600,6,8,2
1,6258,2,1,25,2,433,1,2,3
1,6258,2,2,20,1,443,2,8,6
1,6258,2,3,2,2,365,1,7,3
1,6258,2,4,39,1,440,7,5,8
1,6258,2,5,11,3,499,7,1,5
1,6258,2,6,45,2,553,7,6,8
1,6258,2,7,36,2,470,4,2,1
1,6258,2,8,18,1,453,8,4,2
1,6258,3,1,10,2,695,5,7,1
1,6258,3,2,41,1,500,8,5,7
1,6258,3,3,43,2,426,6,7,8
1,6258,3,4,17,2,534,8,2,4
1,6258,3,5,32,2,530,1,4,2
1,6258,3,6,19,3,490,2,6,8
1,6258,3,7,5,1,531,7,1,3
1,6258,3,8,29,3,472,3,1,2
1,6258,4,1,24,3,667,8,6,2
1,6258,4,2,27,1,496,2,1,3
1,6258,4,3,47,3,529,8,6,7
1,6258,4,4,33,1,451,2,1,4
1,6258,4,5,40,2,575,7,8,5
1,6258,4,6,15,2,518,4,2,8
1,6258,4,7,7,3,534,1,5,7
1,6258,4,8,4,2,581,3,7,1
1,6258,5,1,35,3,406,4,1,2
1,6258,5,2,23,2,397,8,2,6
1,6258,5,3,1,3,412,1,3,7
1,6258,5,4,13,3,477,2,4,8
1,6258,5,5,8,2,520,1,7,5
1,6258,5,6,46,1,490,7,8,6
1,6258,5,7,30,2,519,3,2,1
1,6258,5,8,37,2,483,5,7,8
1,6258,6,1,16,2,357,4,8,2
1,6258,6,2,28,1,585,2,3,1
1,6258,6,3,44,3,501,6,8,7
1,6258,6,4,42,2,380,8,7,5
1,6258,6,5,9,3,470,5,1,7
1,6258,6,6,34,1,493,2,4,1
1,6258,6,7,3,3,339,3,1,7
1,6258,6,8,21,2,438,6,2,8
1,6258,7,1,27,1,398,2,1,3
1,6258,7,2,41,3,369,8,5,7
1,6258,7,3,15,2,358,4,2,8
1,6258,7,4,10,2,444,5,7,1
1,6258,7,5,4,2,397,3,7,1
1,6258,7,6,47,3,421,8,6,7
1,6258,7,7,19,1,432,2,6,8
1,6258,7,8,31,2,442,1,2,4
1,6258,8,1,26,3,336,1,3,2
1,6258,8,2,39,1,517,7,5,8
1,6258,8,3,24,3,420,8,6,2
1,6258,8,4,2,2,454,1,7,3
1,6258,8,5,35,3,441,4,1,2
1,6258,8,6,12,1,368,7,5,1
1,6258,8,7,14,2,420,2,8,4
1,6258,8,8,46,1,989,7,8,6
1,6258,9,1,42,3,580,8,7,5
1,6258,9,2,23,2,300,8,2,6
1,6258,9,3,43,2,395,6,7,8
1,6258,9,4,30,2,343,3,2,1
1,6258,9,5,8,2,492,1,7,5
1,6258,9,6,1,3,392,1,3,7
1,6258,9,7,32,2,570,1,4,2
1,6258,9,8,18,1,637,8,4,2
1,6258,10,1,11,1,411,7,1,5
1,6258,10,2,28,1,469,2,3,1
1,6258,10,3,6,1,584,7,3,1
1,6258,10,4,40,2,429,7,8,5
1,6258,10,5,44,3,549,6,8,7
1,6258,10,6,33,1,457,2,1,4
1,6258,10,7,22,1,531,6,8,2
1,6258,10,8,13,3,549,2,4,8
1,6258,11,1,21,2,512,6,2,8
1,6258,11,2,38,2,508,5,8,7
1,6258,11,3,9,3,403,5,1,7
1,6258,11,4,29,3,444,3,1,2
1,6258,11,5,34,2,717,2,4,1
1,6258,11,6,45,1,886,7,6,8
1,6258,11,7,5,1,405,7,1,3
1,6258,11,8,16,2,568,4,8,2
1,6258,12,1,3,3,399,3,1,7
1,6258,12,2,37,2,721,5,7,8
1,6258,12,3,36,2,404,4,2,1
1,6258,12,4,7,3,511,1,5,7
1,6258,12,5,25,2,598,1,2,3
1,6258,12,6,48,2,391,8,7,6
1,6258,12,7,17,1,587,8,2,4
1,6258,12,8,20,2,367,2,8,6
1,6259,1,1,16,2,2061,4,8,2
1,6259,1,2,33,2,4465,2,1,4
1,6259,1,3,38,3,1253,5,8,7
1,6259,1,4,5,3,5122,7,1,3
1,6259,1,5,25,2,3007,1,2,3
1,6259,1,6,20,1,1061,2,8,6
1,6259,1,7,11,2,985,7,1,5
1,6259,1,8,45,1,1838,7,6,8
1,6259,2,1,26,2,2247,1,3,2
1,6259,2,2,15,3,1389,4,2,8
1,6259,2,3,19,1,1416,2,6,8
1,6259,2,4,8,1,1290,1,7,5
1,6259,2,5,6,1,889,7,3,1
1,6259,2,6,39,3,1071,7,5,8
1,6259,2,7,35,2,1001,4,1,2
1,6259,2,8,44,3,784,6,8,7
1,6259,3,1,21,2,1930,6,2,8
1,6259,3,2,4,2,949,3,7,1
1,6259,3,3,32,1,852,1,4,2
1,6259,3,4,12,3,1743,7,5,1
1,6259,3,5,14,2,1409,2,8,4
1,6259,3,6,27,3,981,2,1,3
1,6259,3,7,47,3,947,8,6,7
1,6259,3,8,40,1,908,7,8,5
1,6259,4,1,13,3,1190,2,4,8
1,6259,4,2,29,1,1045,3,1,2
1,6259,4,3,3,3,617,3,1,7
1,6259,4,4,22,1,749,6,8,2
1,6259,4,5,46,1,565,7,8,6
1,6259,4,6,36,3,668,4,2,1
1,6259,4,7,7,1,570,1,5,7
1,6259,4,8,42,1,1643,8,7,5
1,6259,5,1,17,3,625,8,2,4
1,6259,5,2,41,1,1419,8,5,7
1,6259,5,3,10,3,1058,5,7,1
1,6259,5,4,30,3,1527,3,2,1
1,6259,5,5,24,3,1833,8,6,2
1,6259,5,6,34,3,1354,2,4,1
1,6259,5,7,43,2,719,6,7,8
1,6259,5,8,2,2,1011,1,7,3
1,6259,6,1,31,1,814,1,2,4
1,6259,6,2,28,3,855,2,3,1
1,6259,6,3,48,1,2054,8,7,6
1,6259,6,4,37,3,1132,5,7,8
1,6259,6,5,23,1,1110,8,2,6
1,6259,6,6,1,3,678,1,3,7
1,6259,6,7,9,2,930,5,1,7
1,6259,6,8,18,1,1757,8,4,2
1,6259,7,1,27,3,470,2,1,3
1,6259,7,2,3,3,757,3,1,7
1,6259,7,3,17,1,1272,8,2,4
1,6259,7,4,47,3,533,8,6,7
1,6259,7,5,11,2,968,7,1,5
1,6259,7,6,38,1,772,5,8,7
1,6259,7,7,19,2,1515,2,6,8
1,6259,7,8,35,2,1859,4,1,2
1,6259,8,1,22,1,697,6,8,2
1,6259,8,2,28,2,1701,2,3,1
1,6259,8,3,48,2,777,8,7,6
1,6259,8,4,7,1,777,1,5,7
1,6259,8,5,18,1,923,8,4,2
1,6259,8,6,1,3,505,1,3,7
1,6259,8,7,41,1,1678,8,5,7
1,6259,8,8,36,3,1506,4,2,1
1,6259,9,1,44,3,483,6,8,7
1,6259,9,2,24,3,1169,8,6,2
1,6259,9,3,13,1,1113,2,4,8
1,6259,9,4,29,1,845,3,1,2
1,6259,9,5,39,3,965,7,5,8
1,6259,9,6,10,2,1122,5,7,1
1,6259,9,7,33,3,1945,2,1,4
1,6259,9,8,6,1,1261,7,3,1
1,6259,10,1,9,2,692,5,1,7
1,6259,10,2,15,1,683,4,2,8
1,6259,10,3,30,1,629,3,2,1
1,6259,10,4,40,2,875,7,8,5
1,6259,10,5,2,1,743,1,7,3
1,6259,10,6,21,2,1551,6,2,8
1,6259,10,7,32,1,1683,1,4,2
1,6259,10,8,45,1,930,7,6,8
1,6259,11,1,34,3,637,2,4,1
1,6259,11,2,23,2,1235,8,2,6
1,6259,11,3,25,1,865,1,2,3
1,6259,11,4,12,3,1177,7,5,1
1,6259,11,5,5,2,834,7,1,3
1,6259,11,6,43,2,764,6,7,8
1,6259,11,7,16,2,2304,4,8,2
1,6259,11,8,37,3,982,5,7,8
1,6259,12,1,31,1,779,1,2,4
1,6259,12,2,4,3,1321,3,7,1
1,6259,12,3,8,1,703,1,7,5
1,6259,12,4,20,1,1079,2,8,6
1,6259,12,5,14,3,883,2,8,4
1,6259,12,6,46,3,1742,7,8,6
1,6259,12,7,42,1,1020,8,7,5
1,6259,12,8,26,1,1031,1,3,2
1,6263,1,1,17,2,4295,8,2,4
1,6263,1,2,44,3,4287,6,8,7
1,6263,1,3,35,2,1408,4,1,2
1,6263,1,4,10,2,1117,5,7,1
1,6263,1,5,3,3,959,3,1,7
1,6263,1,6,30,2,1678,3,2,1
1,6263,1,7,42,2,1442,8,7,5
1,6263,1,8,24,3,1367,8,6,2
1,6263,2,1,28,1,1515,2,3,1
1,6263,2,2,48,2,1332,8,7,6
1,6263,2,3,40,2,1169,7,8,5
1,6263,2,4,20,1,1118,2,8,6
1,6263,2,5,4,2,926,3,7,1
1,6263,2,6,18,1,1564,8,4,2
1,6263,2,7,33,3,1850,2,1,4
1,6263,2,8,7,1,1332,1,5,7
1,6263,3,1,14,2,2367,2,8,4
1,6263,3,2,5,1,1962,7,1,3
1,6263,3,3,27,3,1603,2,1,3
1,6263,3,4,47,3,1292,8,6,7
1,6263,3,5,41,1,2083,8,5,7
1,6263,3,6,34,3,1316,2,4,1
1,6263,3,7,9,2,1353,5,1,7
1,6263,3,8,23,2,1006,8,2,6
1,6263,4,1,6,1,996,7,3,1
1,6263,4,2,15,3,1189,4,2,8
1,6263,4,3,29,3,943,3,1,2
1,6263,4,4,32,3,1461,1,4,2
1,6263,4,5,38,2,1644,5,8,7
1,6263,4,6,22,3,1164,6,8,2
1,6263,4,7,46,1,1774,7,8,6
1,6263,4,8,8,1,1263,1,7,5
1,6263,5,1,26,3,1043,1,3,2
1,6263,5,2,39,3,1529,7,5,8
1,6263,5,3,45,1,1089,7,6,8
1,6263,5,4,31,2,887,1,2,4
1,6263,5,5,2,2,976,1,7,3
1,6263,5,6,19,1,1321,2,6,8
1,6263,5,7,13,3,1144,2,4,8
1,6263,5,8,12,3,1323,7,5,1
1,6263,6,1,1,3,791,1,3,7
1,6263,6,2,43,1,1091,6,7,8
1,6263,6,3,37,1,1359,5,7,8
1,6263,6,4,16,2,1194,4,8,2
1,6263,6,5,36,3,1139,4,2,1
1,6263,6,6,25,2,1389,1,2,3
1,6263,6,7,11,2,969,7,1,5
1,6263,6,8,21,2,901,6,2,8
1,6263,7,1,2,2,727,1,7,3
1,6263,7,2,33,1,1564,2,1,4
1,6263,7,3,26,3,1093,1,3,2
1,6263,7,4,14,2,1166,2,8,4
1,6263,7,5,42,3,1625,8,7,5
1,6263,7,6,45,1,1138,7,6,8
1,6263,7,7,7,3,1253,1,5,7
1,6263,7,8,22,3,861,6,8,2
1,6263,8,1,12,3,1301,7,5,1
1,6263,8,2,35,3,1321,4,1,2
1,6263,8,3,17,2,1487,8,2,4
1,6263,8,4,30,2,1083,3,2,1
1,6263,8,5,46,1,1095,7,8,6
1,6263,8,6,6,1,994,7,3,1
1,6263,8,7,39,1,1275,7,5,8
1,6263,8,8,21,2,1184,6,2,8
1,6263,9,1,27,1,1008,2,1,3
1,6263,9,2,3,3,844,3,1,7
1,6263,9,3,43,2,940,6,7,8
1,6263,9,4,32,3,936,1,4,2
1,6263,9,5,20,1,1243,2,8,6
1,6263,9,6,13,3,979,2,4,8
1,6263,9,7,9,2,1291,5,1,7
1,6263,9,8,38,2,1485,5,8,7
1,6263,10,1,8,1,1223,1,7,5
1,6263,10,2,18,3,1709,8,4,2
1,6263,10,3,5,1,1116,7,1,3
1,6263,10,4,47,3,1294,8,6,7
1,6263,10,5,31,2,909,1,2,4
1,6263,10,6,19,1,1088,2,6,8
1,6263,10,7,28,1,1168,2,3,1
1,6263,10,8,37,3,1803,5,7,8
1,6263,11,1,23,2,903,8,2,6
1,6263,11,2,25,2,939,1,2,3
1,6263,11,3,36,3,894,4,2,1
1,6263,11,4,10,3,859,5,7,1
1,6263,11,5,16,2,1273,4,8,2
1,6263,11,6,44,3,1783,6,8,7
1,6263,11,7,4,2,1000,3,7,1
1,6263,11,8,41,1,1130,8,5,7
1,6263,12,1,11,2,1155,7,1,5
1,6263,12,2,40,3,1104,7,8,5
1,6263,12,3,1,3,1375,1,3,7
1,6263,12,4,15,2,1333,4,2,8
1,6263,12,5,34,3,1444,2,4,1
1,6263,12,6,24,3,1177,8,6,2
1,6263,12,7,29,3,1582,3,1,2
1,6263,12,8,48,2,846,8,7,6
1,6264,1,1,11,1,4016,7,1,5
1,6264,1,2,47,3,1015,8,6,7
1,6264,1,3,4,2,811,3,7,1
1,6264,1,4,27,3,1666,2,1,3
1,6264,1,5,38,2,2133,5,8,7
1,6264,1,6,24,3,949,8,6,2
1,6264,1,7,34,3,962,2,4,1
1,6264,1,8,13,3,781,2,4,8
1,6264,2,1,5,1,1382,7,1,3
1,6264,2,2,28,1,1003,2,3,1
1,6264,2,3,42,1,1207,8,7,5
1,6264,2,4,12,3,1116,7,5,1
1,6264,2,5,46,1,1597,7,8,6
1,6264,2,6,16,2,847,4,8,2
1,6264,2,7,36,2,935,4,2,1
1,6264,2,8,23,3,851,8,2,6
1,6264,3,1,33,2,674,2,1,4
1,6264,3,2,18,1,1217,8,4,2
1,6264,3,3,26,2,809,1,3,2
1,6264,3,4,6,1,1031,7,3,1
1,6264,3,5,8,3,1143,1,7,5
1,6264,3,6,48,2,673,8,7,6
1,6264,3,7,37,2,767,5,7,8
1,6264,3,8,22,3,1088,6,8,2
1,6264,4,1,3,3,680,3,1,7
1,6264,4,2,30,3,757,3,2,1
1,6264,4,3,19,2,1816,2,6,8
1,6264,4,4,41,3,532,8,5,7
1,6264,4,5,9,3,458,5,1,7
1,6264,4,6,43,1,2836,6,7,8
1,6264,4,7,17,1,777,8,2,4
1,6264,4,8,31,1,798,1,2,4
1,6264,5,1,2,2,519,1,7,3
1,6264,5,2,29,1,541,3,1,2
1,6264,5,3,45,1,604,7,6,8
1,6264,5,4,21,3,790,6,2,8
1,6264,5,5,10,3,1534,5,7,1
1,6264,5,6,40,1,1257,7,8,5
1,6264,5,7,35,2,1118,4,1,2
1,6264,5,8,14,2,1546,2,8,4
1,6264,6,1,32,1,551,1,4,2
1,6264,6,2,20,3,1056,2,8,6
1,6264,6,3,44,3,481,6,8,7
1,6264,6,4,39,1,497,7,5,8
1,6264,6,5,25,3,536,1,2,3
1,6264,6,6,15,2,1788,4,2,8
1,6264,6,7,7,3,1413,1,5,7
1,6264,6,8,1,3,774,1,3,7
1,6264,7,1,45,1,449,7,6,8
1,6264,7,2,23,3,484,8,2,6
1,6264,7,3,30,3,591,3,2,1
1,6264,7,4,18,1,2048,8,4,2
1,6264,7,5,2,2,1025,1,7,3
1,6264,7,6,38,3,691,5,8,7
1,6264,7,7,31,1,1793,1,2,4
1,6264,7,8,10,2,1585,5,7,1
1,6264,8,1,21,2,1235,6,2,8
1,6264,8,2,35,1,1633,4,1,2
1,6264,8,3,42,3,1730,8,7,5
1,6264,8,4,3,3,703,3,1,7
1,6264,8,5,48,2,646,8,7,6
1,6264,8,6,26,2,1539,1,3,2
1,6264,8,7,8,2,976,1,7,5
1,6264,8,8,16,1,3579,4,8,2
1,6264,9,1,24,3,883,8,6,2
1,6264,9,2,7,1,540,1,5,7
1,6264,9,3,25,1,1478,1,2,3
1,6264,9,4,13,3,518,2,4,8
1,6264,9,5,4,2,922,3,7,1
1,6264,9,6,36,1,1278,4,2,1
1,6264,9,7,47,3,973,8,6,7
1,6264,9,8,40,2,1281,7,8,5
1,6264,10,1,17,1,1766,8,2,4
1,6264,10,2,39,2,1684,7,5,8
1,6264,10,3,5,1,490,7,1,3
1,6264,10,4,9,2,2083,5,1,7
1,6264,10,5,46,3,1332,7,8,6
1,6264,10,6,29,1,635,3,1,2
1,6264,10,7,22,1,1207,6,8,2
1,6264,10,8,32,2,1169,1,4,2
1,6264,11,1,19,3,1108,2,6,8
1,6264,11,2,14,2,2401,2,8,4
1,6264,11,3,6,1,472,7,3,1
1,6264,11,4,33,3,1537,2,1,4
1,6264,11,5,44,3,589,6,8,7
1,6264,11,6,37,2,546,5,7,8
1,6264,11,7,11,1,665,7,1,5
1,6264,11,8,28,3,1203,2,3,1
1,6264,12,1,1,3,464,1,3,7
1,6264,12,2,15,3,456,4,2,8
1,6264,12,3,12,1,354,7,5,1
1,6264,12,4,34,3,2087,2,4,1
1,6264,12,5,41,3,489,8,5,7
1,6264,12,6,27,2,556,2,1,3
1,6264,12,7,43,2,1098,6,7,8
1,6264,12,8,20,3,754,2,8,6
1,6265,1,1,12,3,1881,7,5,1
1,6265,1,2,48,2,1081,8,7,6
1,6265,1,3,15,1,2291,4,2,8
1,6265,1,4,34,3,1654,2,4,1
1,6265,1,5,29,1,2104,3,1,2
1,6265,1,6,22,3,1223,6,8,2
1,6265,1,7,6,1,1435,7,3,1
1,6265,1,8,41,3,1182,8,5,7
1,6265,2,1,9,3,1597,5,1,7
1,6265,2,2,16,1,1195,4,8,2
1,6265,2,3,45,1,661,7,6,8
1,6265,2,4,4,2,701,3,7,1
1,6265,2,5,31,1,1338,1,2,4
1,6265,2,6,20,3,2304,2,8,6
1,6265,2,7,25,1,714,1,2,3
1,6265,2,8,42,2,1329,8,7,5
1,6265,3,1,36,3,1048,4,2,1
1,6265,3,2,13,3,807,2,4,8
1,6265,3,3,44,3,533,6,8,7
1,6265,3,4,28,3,1164,2,3,1
1,6265,3,5,10,3,648,5,7,1
1,6265,3,6,37,2,961,5,7,8
1,6265,3,7,21,1,851,6,2,8
1,6265,3,8,5,2,766,7,1,3
1,6265,4,1,43,2,1354,6,7,8
1,6265,4,2,11,1,2324,7,1,5
1,6265,4,3,38,1,1997,5,8,7
1,6265,4,4,19,1,1162,2,6,8
1,6265,4,5,2,2,699,1,7,3
1,6265,4,6,33,2,840,2,1,4
1,6265,4,7,26,1,1864,1,3,2
1,6265,4,8,14,2,574,2,8,4
1,6265,5,1,24,3,965,8,6,2
1,6265,5,2,35,2,650,4,1,2
1,6265,5,3,27,2,1253,2,1,3
1,6265,5,4,8,1,1188,1,7,5
1,6265,5,5,40,1,1680,7,8,5
1,6265,5,6,3,3,682,3,1,7
1,6265,5,7,47,3,638,8,6,7
1,6265,5,8,17,1,1035,8,2,4
1,6265,6,1,23,2,1677,8,2,6
1,6265,6,2,1,1,1492,1,3,7
1,6265,6,3,30,3,1418,3,2,1
1,6265,6,4,46,1,634,7,8,6
1,6265,6,5,7,3,611,1,5,7
1,6265,6,6,32,1,609,1,4,2
1,6265,6,7,39,3,883,7,5,8
1,6265,6,8,18,1,891,8,4,2
1,6265,7,1,20,1,875,2,8,6
1,6265,7,2,34,3,1050,2,4,1
1,6265,7,3,17,1,662,8,2,4
1,6265,7,4,38,3,1187,5,8,7
1,6265,7,5,27,2,815,2,1,3
1,6265,7,6,11,1,668,7,1,5
1,6265,7,7,3,3,826,3,1,7
1,6265,7,8,47,3,546,8,6,7
1,6265,8,1,23,1,926,8,2,6
1,6265,8,2,42,1,1215,8,7,5
1,6265,8,3,44,3,574,6,8,7
1,6265,8,4,26,1,764,1,3,2
1,6265,8,5,8,1,540,1,7,5
1,6265,8,6,35,2,846,4,1,2
1,6265,8,7,6,1,951,7,3,1
1,6265,8,8,13,1,535,2,4,8
1,6265,9,1,22,3,1324,6,8,2
1,6265,9,2,43,2,756,6,7,8
1,6265,9,3,7,1,1348,1,5,7
1,6265,9,4,2,1,531,1,7,3
1,6265,9,5,32,1,460,1,4,2
1,6265,9,6,14,2,1217,2,8,4
1,6265,9,7,39,3,878,7,5,8
1,6265,9,8,25,1,860,1,2,3
1,6265,10,1,46,1,800,7,8,6
1,6265,10,2,5,1,770,7,1,3
1,6265,10,3,15,3,518,4,2,8
1,6265,10,4,24,3,1199,8,6,2
1,6265,10,5,29,3,1309,3,1,2
1,6265,10,6,9,2,648,5,1,7
1,6265,10,7,41,3,926,8,5,7
1,6265,10,8,31,1,640,1,2,4
1,6265,11,1,30,3,602,3,2,1
1,6265,11,2,36,3,473,4,2,1
1,6265,11,3,10,3,1353,5,7,1
1,6265,11,4,45,1,2310,7,6,8
1,6265,11,5,1,1,542,1,3,7
1,6265,11,6,21,2,918,6,2,8
1,6265,11,7,16,1,1109,4,8,2
1,6265,11,8,40,2,661,7,8,5
1,6265,12,1,19,1,793,2,6,8
1,6265,12,2,33,2,584,2,1,4
1,6265,12,3,12,3,525,7,5,1
1,6265,12,4,18,3,651,8,4,2
1,6265,12,5,4,2,525,3,7,1
1,6265,12,6,37,3,597,5,7,8
1,6265,12,7,48,2,1739,8,7,6
1,6265,12,8,28,2,889,2,3,1
1,6266,1,1,18,1,1923,8,4,2
1,6266,1,2,40,1,2806,7,8,5
1,6266,1,3,8,2,3235,1,7,5
1,6266,1,4,26,2,3799,1,3,2
1,6266,1,5,2,2,1522,1,7,3
1,6266,1,6,36,3,1112,4,2,1
1,6266,1,7,45,1,1482,7,6,8
1,6266,1,8,24,3,1714,8,6,2
1,6266,2,1,43,2,937,6,7,8
1,6266,2,2,30,3,1438,3,2,1
1,6266,2,3,9,2,1198,5,1,7
1,6266,2,4,5,1,1800,7,1,3
1,6266,2,5,16,1,2531,4,8,2
1,6266,2,6,19,2,1937,2,6,8
1,6266,2,7,33,2,1488,2,1,4
1,6266,2,8,41,3,1027,8,5,7
1,6266,3,1,14,2,1576,2,8,4
1,6266,3,2,29,1,1335,3,1,2
1,6266,3,3,46,1,1266,7,8,6
1,6266,3,4,22,2,1776,6,8,2
1,6266,3,5,7,3,1025,1,5,7
1,6266,3,6,34,3,981,2,4,1
1,6266,3,7,4,2,1376,3,7,1
1,6266,3,8,37,1,2841,5,7,8
1,6266,4,1,28,3,1113,2,3,1
1,6266,4,2,20,2,1963,2,8,6
1,6266,4,3,17,1,1094,8,2,4
1,6266,4,4,6,1,730,7,3,1
1,6266,4,5,35,2,1049,4,1,2
1,6266,4,6,10,3,1231,5,7,1
1,6266,4,7,47,2,2405,8,6,7
1,6266,4,8,42,1,1128,8,7,5
1,6266,5,1,44,3,781,6,8,7
1,6266,5,2,31,1,1021,1,2,4
1,6266,5,3,13,3,1269,2,4,8
1,6266,5,4,38,3,1592,5,8,7
1,6266,5,5,23,3,1385,8,2,6
1,6266,5,6,12,3,926,7,5,1
1,6266,5,7,1,1,1058,1,3,7
1,6266,5,8,27,2,1535,2,1,3
1,6266,6,1,15,3,1038,4,2,8
1,6266,6,2,21,2,1860,6,2,8
1,6266,6,3,3,3,848,3,1,7
1,6266,6,4,32,1,744,1,4,2
1,6266,6,5,48,2,823,8,7,6
1,6266,6,6,11,2,908,7,1,5
1,6266,6,7,25,1,798,1,2,3
1,6266,6,8,39,3,1385,7,5,8
1,6266,7,1,1,1,686,1,3,7
1,6266,7,2,29,2,1497,3,1,2
1,6266,7,3,44,3,1022,6,8,7
1,6266,7,4,19,3,1713,2,6,8
1,6266,7,5,12,1,811,7,5,1
1,6266,7,6,37,3,1165,5,7,8
1,6266,7,7,31,1,606,1,2,4
1,6266,7,8,17,1,1307,8,2,4
1,6266,8,1,4,2,933,3,7,1
1,6266,8,2,40,3,1527,7,8,5
1,6266,8,3,35,2,873,4,1,2
1,6266,8,4,11,1,2776,7,1,5
1,6266,8,5,15,3,2289,4,2,8
1,6266,8,6,47,3,945,8,6,7
1,6266,8,7,25,2,836,1,2,3
1,6266,8,8,22,3,1921,6,8,2
1,6266,9,1,26,2,1005,1,3,2
1,6266,9,2,42,2,1104,8,7,5
1,6266,9,3,9,2,1222,5,1,7
1,6266,9,4,18,1,1727,8,4,2
1,6266,9,5,2,2,877,1,7,3
1,6266,9,6,34,3,842,2,4,1
1,6266,9,7,24,3,1061,8,6,2
1,6266,9,8,48,2,738,8,7,6
1,6266,10,1,27,2,1186,2,1,3
1,6266,10,2,5,1,1066,7,1,3
1,6266,10,3,43,1,1308,6,7,8
1,6266,10,4,33,2,791,2,1,4
1,6266,10,5,14,2,1511,2,8,4
1,6266,10,6,39,2,1276,7,5,8
1,6266,10,7,8,1,996,1,7,5
1,6266,10,8,21,2,1310,6,2,8
1,6266,11,1,41,1,846,8,5,7
1,6266,11,2,46,3,1626,7,8,6
1,6266,11,3,28,3,889,2,3,1
1,6266,11,4,7,1,1077,1,5,7
1,6266,11,5,20,1,1060,2,8,6
1,6266,11,6,6,3,1044,7,3,1
1,6266,11,7,16,2,2291,4,8,2
1,6266,11,8,36,3,1598,4,2,1
1,6266,12,1,3,3,885,3,1,7
1,6266,12,2,32,1,699,1,4,2
1,6266,12,3,10,3,766,5,7,1
1,6266,12,4,30,3,1336,3,2,1
1,6266,12,5,38,1,949,5,8,7
1,6266,12,6,45,2,1444,7,6,8
1,6266,12,7,23,2,877,8,2,6
1,6266,12,8,13,2,1549,2,4,8
1,6267,1,1,35,3,1822,4,1,2
1,6267,1,2,27,2,2705,2,1,3
1,6267,1,3,42,3,1759,8,7,5
1,6267,1,4,24,3,1314,8,6,2
1,6267,1,5,6,1,1029,7,3,1
1,6267,1,6,7,1,1252,1,5,7
1,6267,1,7,44,2,1407,6,8,7
1,6267,1,8,18,2,3325,8,4,2
1,6267,2,1,38,2,1442,5,8,7
1,6267,2,2,29,3,1536,3,1,2
1,6267,2,3,11,3,2996,7,1,5
1,6267,2,4,33,1,2181,2,1,4
1,6267,2,5,19,1,1203,2,6,8
1,6267,2,6,43,3,2099,6,7,8
1,6267,2,7,14,3,1789,2,8,4
1,6267,2,8,5,2,2454,7,1,3
1,6267,3,1,22,3,963,6,8,2
1,6267,3,2,34,3,2326,2,4,1
1,6267,3,3,12,3,1486,7,5,1
1,6267,3,4,3,3,3276,3,1,7
1,6267,3,5,39,3,804,7,5,8
1,6267,3,6,17,3,2052,8,2,4
1,6267,3,7,46,2,1029,7,8,6
1,6267,3,8,28,3,2071,2,3,1
1,6267,4,1,31,1,1318,1,2,4
1,6267,4,2,8,1,2334,1,7,5
1,6267,4,3,37,3,951,5,7,8
1,6267,4,4,1,1,2170,1,3,7
1,6267,4,5,47,1,1414,8,6,7
1,6267,4,6,16,2,947,4,8,2
1,6267,4,7,20,1,1389,2,8,6
1,6267,4,8,30,2,1022,3,2,1
1,6267,5,1,2,1,1919,1,7,3
1,6267,5,2,26,3,1012,1,3,2
1,6267,5,3,40,2,1497,7,8,5
1,6267,5,4,48,1,1872,8,7,6
1,6267,5,5,21,2,893,6,2,8
1,6267,5,6,9,2,1435,5,1,7
1,6267,5,7,32,1,1506,1,4,2
1,6267,5,8,13,3,1918,2,4,8
1,6267,6,1,23,2,3112,8,2,6
1,6267,6,2,15,1,1375,4,2,8
1,6267,6,3,10,3,2004,5,7,1
1,6267,6,4,25,1,1765,1,2,3
1,6267,6,5,41,1,794,8,5,7
1,6267,6,6,45,2,2103,7,6,8
1,6267,6,7,4,1,963,3,7,1
1,6267,6,8,36,3,1068,4,2,1
1,6267,7,1,42,1,906,8,7,5
1,6267,7,2,17,3,2110,8,2,4
1,6267,7,3,27,1,1116,2,1,3
1,6267,7,4,43,2,3332,6,7,8
1,6267,7,5,6,1,1061,7,3,1
1,6267,7,6,9,3,1005,5,1,7
1,6267,7,7,20,1,753,2,8,6
1,6267,7,8,34,3,1139,2,4,1
1,6267,8,1,7,1,752,1,5,7
1,6267,8,2,33,2,1760,2,1,4
1,6267,8,3,14,2,918,2,8,4
1,6267,8,4,2,2,2228,1,7,3
1,6267,8,5,25,2,783,1,2,3
1,6267,8,6,44,2,988,6,8,7
1,6267,8,7,23,3,2229,8,2,6
1,6267,8,8,39,3,1056,7,5,8
1,6267,9,1,12,3,1965,7,5,1
1,6267,9,2,28,1,588,2,3,1
1,6267,9,3,5,1,970,7,1,3
1,6267,9,4,48,1,634,8,7,6
1,6267,9,5,37,3,816,5,7,8
1,6267,9,6,19,1,858,2,6,8
1,6267,9,7,16,3,744,4,8,2
1,6267,9,8,35,3,1706,4,1,2
1,6267,10,1,18,1,692,8,4,2
1,6267,10,2,31,1,879,1,2,4
1,6267,10,3,11,2,1836,7,1,5
1,6267,10,4,26,3,710,1,3,2
1,6267,10,5,45,3,1027,7,6,8
1,6267,10,6,24,3,1490,8,6,2
1,6267,10,7,1,3,2026,1,3,7
1,6267,10,8,41,1,887,8,5,7
1,6267,11,1,13,3,1317,2,4,8
1,6267,11,2,38,2,2191,5,8,7
1,6267,11,3,47,1,917,8,6,7
1,6267,11,4,36,2,790,4,2,1
1,6267,11,5,22,3,1701,6,8,2
1,6267,11,6,3,3,1022,3,1,7
1,6267,11,7,29,3,740,3,1,2
1,6267,11,8,10,1,2590,5,7,1
1,6267,12,1,32,3,661,1,4,2
1,6267,12,2,46,2,1278,7,8,6
1,6267,12,3,15,2,1753,4,2,8
1,6267,12,4,21,2,1267,6,2,8
1,6267,12,5,4,3,2208,3,7,1
1,6267,12,6,30,2,1110,3,2,1
1,6267,12,7,8,1,2467,1,7,5
1,6267,12,8,40,2,592,7,8,5
1,6268,1,1,33,1,3669,2,1,4
1,6268,1,2,24,3,1401,8,6,2
1,6268,1,3,8,1,610,1,7,5
1,6268,1,4,42,2,831,8,7,5
1,6268,1,5,29,3,1144,3,1,2
1,6268,1,6,18,3,1664,8,4,2
1,6268,1,7,4,2,669,3,7,1
1,6268,1,8,46,1,525,7,8,6
1,6268,2,1,38,3,921,5,8,7
1,6268,2,2,43,2,529,6,7,8
1,6268,2,3,13,3,1037,2,4,8
1,6268,2,4,28,1,1272,2,3,1
1,6268,2,5,35,2,810,4,1,2
1,6268,2,6,20,2,490,2,8,6
1,6268,2,7,9,2,1534,5,1,7
1,6268,2,8,6,1,1049,7,3,1
1,6268,3,1,47,3,1449,8,6,7
1,6268,3,2,16,2,902,4,8,2
1,6268,3,3,37,3,1450,5,7,8
1,6268,3,4,7,3,617,1,5,7
1,6268,3,5,34,2,1388,2,4,1
1,6268,3,6,25,2,1587,1,2,3
1,6268,3,7,2,2,591,1,7,3
1,6268,3,8,23,2,1340,8,2,6
1,6268,4,1,44,1,1500,6,8,7
1,6268,4,2,40,3,1186,7,8,5
1,6268,4,3,3,3,1159,3,1,7
1,6268,4,4,36,2,1526,4,2,1
1,6268,4,5,14,2,695,2,8,4
1,6268,4,6,19,1,1454,2,6,8
1,6268,4,7,30,2,1256,3,2,1
1,6268,4,8,11,2,701,7,1,5
1,6268,5,1,17,2,795,8,2,4
1,6268,5,2,12,3,1183,7,5,1
1,6268,5,3,21,2,840,6,2,8
1,6268,5,4,41,3,1710,8,5,7
1,6268,5,5,27,1,701,2,1,3
1,6268,5,6,5,1,862,7,1,3
1,6268,5,7,48,3,1114,8,7,6
1,6268,5,8,32,1,1072,1,4,2
1,6268,6,1,22,2,934,6,8,2
1,6268,6,2,26,3,809,1,3,2
1,6268,6,3,31,1,791,1,2,4
1,6268,6,4,1,1,708,1,3,7
1,6268,6,5,45,1,714,7,6,8
1,6268,6,6,39,3,1179,7,5,8
1,6268,6,7,15,3,938,4,2,8
1,6268,6,8,10,3,908,5,7,1
1,6268,7,1,47,3,1110,8,6,7
1,6268,7,2,21,2,800,6,2,8
1,6268,7,3,6,3,1516,7,3,1
1,6268,7,4,41,1,1787,8,5,7
1,6268,7,5,25,2,616,1,2,3
1,6268,7,6,11,2,992,7,1,5
1,6268,7,7,16,2,645,4,8,2
1,6268,7,8,35,2,1258,4,1,2
1,6268,8,1,15,2,764,4,2,8
1,6268,8,2,42,2,761,8,7,5
1,6268,8,3,8,1,783,1,7,5
1,6268,8,4,5,2,932,7,1,3
1,6268,8,5,22,3,1044,6,8,2
1,6268,8,6,30,2,573,3,2,1
1,6268,8,7,33,1,1081,2,1,4
1,6268,8,8,48,2,906,8,7,6
1,6268,9,1,13,1,666,2,4,8
1,6268,9,2,38,2,2622,5,8,7
1,6268,9,3,46,1,1126,7,8,6
1,6268,9,4,34,1,760,2,4,1
1,6268,9,5,20,2,1213,2,8,6
1,6268,9,6,2,1,532,1,7,3
1,6268,9,7,28,1,931,2,3,1
1,6268,9,8,12,1,701,7,5,1
1,6268,10,1,19,1,444,2,6,8
1,6268,10,2,36,3,834,4,2,1
1,6268,10,3,45,2,601,7,6,8
1,6268,10,4,14,1,537,2,8,4
1,6268,10,5,27,2,1152,2,1,3
1,6268,10,6,40,1,960,7,8,5
1,6268,10,7,1,1,734,1,3,7
1,6268,10,8,7,3,1591,1,5,7
1,6268,11,1,43,2,640,6,7,8
1,6268,11,2,3,3,1086,3,1,7
1,6268,11,3,18,1,1942,8,4,2
1,6268,11,4,32,1,1429,1,4,2
1,6268,11,5,26,3,1142,1,3,2
1,6268,11,6,10,1,808,5,7,1
1,6268,11,7,23,2,1830,8,2,6
1,6268,11,8,39,1,1045,7,5,8
1,6268,12,1,17,2,571,8,2,4
1,6268,12,2,9,2,1550,5,1,7
1,6268,12,3,24,3,898,8,6,2
1,6268,12,4,29,2,695,3,1,2
1,6268,12,5,31,1,755,1,2,4
1,6268,12,6,37,2,1100,5,7,8
1,6268,12,7,4,2,671,3,7,1
1,6268,12,8,44,3,1971,6,8,7
1,6269,1,1,8,1,5315,1,7,5
1,6269,1,2,17,3,3010,8,2,4
1,6269,1,3,28,1,1890,2,3,1
1,6269,1,4,19,1,1678,2,6,8
1,6269,1,5,43,2,1301,6,7,8
1,6269,1,6,5,1,940,7,1,3
1,6269,1,7,34,3,2064,2,4,1
1,6269,1,8,38,3,1144,5,8,7
1,6269,2,1,11,2,1363,7,1,5
1,6269,2,2,13,2,1330,2,4,8
1,6269,2,3,33,2,1004,2,1,4
1,6269,2,4,46,1,1019,7,8,6
1,6269,2,5,27,3,1159,2,1,3
1,6269,2,6,1,1,2743,1,3,7
1,6269,2,7,37,1,930,5,7,8
1,6269,2,8,24,2,1438,8,6,2
1,6269,3,1,29,3,873,3,1,2
1,6269,3,2,2,2,1141,1,7,3
1,6269,3,3,9,2,1089,5,1,7
1,6269,3,4,35,3,1217,4,1,2
1,6269,3,5,20,1,794,2,8,6
1,6269,3,6,39,3,1637,7,5,8
1,6269,3,7,44,1,1326,6,8,7
1,6269,3,8,15,3,1987,4,2,8
1,6269,4,1,32,1,1311,1,4,2
1,6269,4,2,14,3,628,2,8,4
1,6269,4,3,7,1,821,1,5,7
1,6269,4,4,40,3,975,7,8,5
1,6269,4,5,23,2,662,8,2,6
1,6269,4,6,48,1,679,8,7,6
1,6269,4,7,30,3,559,3,2,1
1,6269,4,8,3,2,2371,3,1,7
1,6269,5,1,25,2,724,1,2,3
1,6269,5,2,12,2,2044,7,5,1
1,6269,5,3,36,2,821,4,2,1
1,6269,5,4,45,2,848,7,6,8
1,6269,5,5,6,1,993,7,3,1
1,6269,5,6,22,1,1039,6,8,2
1,6269,5,7,18,2,955,8,4,2
1,6269,5,8,41,1,968,8,5,7
1,6269,6,1,4,2,681,3,7,1
1,6269,6,2,16,2,728,4,8,2
1,6269,6,3,42,3,1238,8,7,5
1,6269,6,4,21,2,878,6,2,8
1,6269,6,5,47,2,608,8,6,7
1,6269,6,6,31,2,1380,1,2,4
1,6269,6,7,26,3,743,1,3,2
1,6269,6,8,10,2,830,5,7,1
1,6269,7,1,38,2,589,5,8,7
1,6269,7,2,43,2,476,6,7,8
1,6269,7,3,24,2,1398,8,6,2
1,6269,7,4,15,2,499,4,2,8
1,6269,7,5,8,2,615,1,7,5
1,6269,7,6,5,1,567,7,1,3
1,6269,7,7,27,3,592,2,1,3
1,6269,7,8,32,2,591,1,4,2
1,6269,8,1,3,3,575,3,1,7
1,6269,8,2,31,2,593,1,2,4
1,6269,8,3,46,2,526,7,8,6
1,6269,8,4,41,3,883,8,5,7
1,6269,8,5,20,1,1126,2,8,6
1,6269,8,6,14,1,752,2,8,4
1,6269,8,7,26,3,606,1,3,2
1,6269,8,8,10,2,1010,5,7,1
1,6269,9,1,18,1,565,8,4,2
1,6269,9,2,42,1,969,8,7,5
1,6269,9,3,4,2,587,3,7,1
1,6269,9,4,28,1,662,2,3,1
1,6269,9,5,36,3,1504,4,2,1
1,6269,9,6,47,3,1457,8,6,7
1,6269,9,7,11,3,1106,7,1,5
1,6269,9,8,21,1,994,6,2,8
1,6269,10,1,9,2,1460,5,1,7
1,6269,10,2,16,3,2140,4,8,2
1,6269,10,3,37,3,1615,5,7,8
1,6269,10,4,25,2,571,1,2,3
1,6269,10,5,1,3,752,1,3,7
1,6269,10,6,22,2,524,6,8,2
1,6269,10,7,48,1,1337,8,7,6
1,6269,10,8,34,3,535,2,4,1
1,6269,11,1,45,3,1160,7,6,8
1,6269,11,2,6,1,636,7,3,1
1,6269,11,3,23,3,861,8,2,6
1,6269,11,4,7,2,1426,1,5,7
1,6269,11,5,39,3,683,7,5,8
1,6269,11,6,29,3,538,3,1,2
1,6269,11,7,17,2,878,8,2,4
1,6269,11,8,35,3,962,4,1,2
1,6269,12,1,40,2,1075,7,8,5
1,6269,12,2,12,2,1134,7,5,1
1,6269,12,3,2,3,880,1,7,3
1,6269,12,4,30,2,656,3,2,1
1,6269,12,5,19,2,1340,2,6,8
1,6269,12,6,44,3,906,6,8,7
1,6269,12,7,33,2,1914,2,1,4
1,6269,12,8,13,3,1457,2,4,8
1,6270,1,1,42,1,13655,8,7,5
1,6270,1,2,10,3,7549,5,7,1
1,6270,1,3,47,1,11153,8,6,7
1,6270,1,4,27,2,2752,2,1,3
1,6270,1,5,24,1,4225,8,6,2
1,6270,1,6,31,3,2883,1,2,4
1,6270,1,7,1,3,8289,1,3,7
1,6270,1,8,16,1,15946,4,8,2
1,6270,2,1,26,3,2875,1,3,2
1,6270,2,2,45,1,939,7,6,8
1,6270,2,3,19,1,1252,2,6,8
1,6270,2,4,8,1,729,1,7,5
1,6270,2,5,38,2,663,5,8,7
1,6270,2,6,32,1,820,1,4,2
1,6270,2,7,6,1,487,7,3,1
1,6270,2,8,17,1,775,8,2,4
1,6270,3,1,12,3,910,7,5,1
1,6270,3,2,44,3,848,6,8,7
1,6270,3,3,39,1,609,7,5,8
1,6270,3,4,4,2,1129,3,7,1
1,6270,3,5,25,2,2326,1,2,3
1,6270,3,6,14,2,719,2,8,4
1,6270,3,7,33,1,1982,2,1,4
1,6270,3,8,20,3,557,2,8,6
1,6270,4,1,3,3,1131,3,1,7
1,6270,4,2,46,2,686,7,8,6
1,6270,4,3,11,1,2135,7,1,5
1,6270,4,4,36,1,957,4,2,1
1,6270,4,5,28,3,780,2,3,1
1,6270,4,6,41,1,726,8,5,7
1,6270,4,7,21,1,684,6,2,8
1,6270,4,8,18,1,958,8,4,2
1,6270,5,1,37,3,968,5,7,8
1,6270,5,2,30,1,1090,3,2,1
1,6270,5,3,23,2,1846,8,2,6
1,6270,5,4,9,3,1526,5,1,7
1,6270,5,5,13,3,1091,2,4,8
1,6270,5,6,43,2,2046,6,7,8
1,6270,5,7,2,2,654,1,7,3
1,6270,5,8,34,3,688,2,4,1
1,6270,6,1,29,3,812,3,1,2
1,6270,6,2,40,1,1004,7,8,5
1,6270,6,3,35,1,872,4,1,2
1,6270,6,4,48,2,808,8,7,6
1,6270,6,5,5,1,521,7,1,3
1,6270,6,6,15,1,861,4,2,8
1,6270,6,7,22,1,687,6,8,2
1,6270,6,8,7,2,1958,1,5,7
1,6270,7,1,19,2,1856,2,6,8
1,6270,7,2,33,2,1077,2,1,4
1,6270,7,3,3,3,556,3,1,7
1,6270,7,4,28,2,986,2,3,1
1,6270,7,5,39,1,674,7,5,8
1,6270,7,6,13,3,1115,2,4,8
1,6270,7,7,11,1,580,7,1,5
1,6270,7,8,45,1,611,7,6,8
1,6270,8,1,16,2,731,4,8,2
1,6270,8,2,44,3,515,6,8,7
1,6270,8,3,21,3,1913,6,2,8
1,6270,8,4,12,1,1666,7,5,1
1,6270,8,5,30,1,670,3,2,1
1,6270,8,6,31,1,872,1,2,4
1,6270,8,7,42,2,553,8,7,5
1,6270,8,8,4,2,1344,3,7,1
1,6270,9,1,36,3,675,4,2,1
1,6270,9,2,41,2,804,8,5,7
1,6270,9,3,46,1,494,7,8,6
1,6270,9,4,10,1,1374,5,7,1
1,6270,9,5,6,1,1148,7,3,1
1,6270,9,6,15,1,641,4,2,8
1,6270,9,7,22,1,582,6,8,2
1,6270,9,8,27,2,597,2,1,3
1,6270,10,1,9,1,2785,5,1,7
1,6270,10,2,35,1,1001,4,1,2
1,6270,10,3,5,1,468,7,1,3
1,6270,10,4,40,1,578,7,8,5
1,6270,10,5,43,2,1451,6,7,8
1,6270,10,6,29,1,569,3,1,2
1,6270,10,7,23,1,482,8,2,6
1,6270,10,8,14,2,886,2,8,4
1,6270,11,1,1,3,510,1,3,7
1,6270,11,2,34,3,1082,2,4,1
1,6270,11,3,18,1,507,8,4,2
1,6270,11,4,8,2,1152,1,7,5
1,6270,11,5,26,2,1121,1,3,2
1,6270,11,6,37,3,704,5,7,8
1,6270,11,7,20,3,678,2,8,6
1,6270,11,8,48,2,688,8,7,6
1,6270,12,1,2,2,492,1,7,3
1,6270,12,2,7,2,494,1,5,7
1,6270,12,3,32,1,609,1,4,2
1,6270,12,4,47,3,509,8,6,7
1,6270,12,5,38,2,747,5,8,7
1,6270,12,6,17,1,465,8,2,4
1,6270,12,7,25,3,627,1,2,3
1,6270,12,8,24,1,360,8,6,2
1,6271,1,1,41,2,5069,8,5,7
1,6271,1,2,8,1,1670,1,7,5
1,6271,1,3,46,1,1208,7,8,6
1,6271,1,4,24,3,960,8,6,2
1,6271,1,5,26,3,1648,1,3,2
1,6271,1,6,18,3,1940,8,4,2
1,6271,1,7,31,2,1423,1,2,4
1,6271,1,8,2,2,1767,1,7,3
1,6271,2,1,36,2,1279,4,2,1
1,6271,2,2,19,1,1116,2,6,8
1,6271,2,3,28,1,730,2,3,1
1,6271,2,4,17,2,854,8,2,4
1,6271,2,5,45,3,2391,7,6,8
1,6271,2,6,10,3,981,5,7,1
1,6271,2,7,4,2,893,3,7,1
1,6271,2,8,38,2,3553,5,8,7
1,6271,3,1,14,2,930,2,8,4
1,6271,3,2,25,2,800,1,2,3
1,6271,3,3,23,2,765,8,2,6
1,6271,3,4,37,3,862,5,7,8
1,6271,3,5,48,1,1243,8,7,6
1,6271,3,6,9,3,833,5,1,7
1,6271,3,7,1,3,818,1,3,7
1,6271,3,8,32,3,771,1,4,2
1,6271,4,1,6,1,750,7,3,1
1,6271,4,2,33,1,680,2,1,4
1,6271,4,3,47,3,764,8,6,7
1,6271,4,4,42,1,1998,8,7,5
1,6271,4,5,22,3,966,6,8,2
1,6271,4,6,29,3,836,3,1,2
1,6271,4,7,11,1,1537,7,1,5
1,6271,4,8,13,3,803,2,4,8
1,6271,5,1,5,1,876,7,1,3
1,6271,5,2,12,1,841,7,5,1
1,6271,5,3,21,2,854,6,2,8
1,6271,5,4,35,3,974,4,1,2
1,6271,5,5,40,2,704,7,8,5
1,6271,5,6,15,2,757,4,2,8
1,6271,5,7,27,1,1242,2,1,3
1,6271,5,8,43,1,2107,6,7,8
1,6271,6,1,30,2,1172,3,2,1
1,6271,6,2,20,1,1732,2,8,6
1,6271,6,3,7,3,859,1,5,7
1,6271,6,4,16,2,728,4,8,2
1,6271,6,5,39,3,733,7,5,8
1,6271,6,6,44,2,683,6,8,7
1,6271,6,7,34,1,799,2,4,1
1,6271,6,8,3,3,761,3,1,7
1,6271,7,1,35,3,737,4,1,2
1,6271,7,2,17,2,743,8,2,4
1,6271,7,3,12,1,1190,7,5,1
1,6271,7,4,5,1,707,7,1,3
1,6271,7,5,24,3,812,8,6,2
1,6271,7,6,48,1,775,8,7,6
1,6271,7,7,28,1,715,2,3,1
1,6271,7,8,41,1,689,8,5,7
1,6271,8,1,23,2,665,8,2,6
1,6271,8,2,29,3,782,3,1,2
1,6271,8,3,39,3,716,7,5,8
1,6271,8,4,18,3,957,8,4,2
1,6271,8,5,47,2,1330,8,6,7
1,6271,8,6,31,2,633,1,2,4
1,6271,8,7,8,1,1102,1,7,5
1,6271,8,8,2,1,1249,1,7,3
1,6271,9,1,7,2,2145,1,5,7
1,6271,9,2,6,1,1445,7,3,1
1,6271,9,3,40,2,770,7,8,5
1,6271,9,4,32,3,774,1,4,2
1,6271,9,5,25,2,734,1,2,3
1,6271,9,6,16,2,721,4,8,2
1,6271,9,7,22,3,912,6,8,2
1,6271,9,8,43,3,839,6,7,8
1,6271,10,1,33,1,814,2,1,4
1,6271,10,2,46,2,600,7,8,6
1,6271,10,3,30,2,581,3,2,1
1,6271,10,4,15,2,400,4,2,8
1,6271,10,5,11,2,1604,7,1,5
1,6271,10,6,20,1,1246,2,8,6
1,6271,10,7,37,3,828,5,7,8
1,6271,10,8,3,3,912,3,1,7
1,6271,11,1,34,1,836,2,4,1
1,6271,11,2,13,3,1061,2,4,8
1,6271,11,3,21,2,797,6,2,8
1,6271,11,4,27,1,724,2,1,3
1,6271,11,5,4,2,998,3,7,1
1,6271,11,6,45,3,734,7,6,8
1,6271,11,7,10,1,897,5,7,1
1,6271,11,8,38,2,956,5,8,7
1,6271,12,1,44,2,802,6,8,7
1,6271,12,2,9,3,758,5,1,7
1,6271,12,3,14,2,700,2,8,4
1,6271,12,4,36,2,621,4,2,1
1,6271,12,5,1,3,616,1,3,7
1,6271,12,6,19,3,711,2,6,8
1,6271,12,7,42,1,903,8,7,5
1,6271,12,8,26,3,641,1,3,2
1,6272,1,1,26,2,1936,1,3,2
1,6272,1,2,36,2,1227,4,2,1
1,6272,1,3,40,3,2491,7,8,5
1,6272,1,4,24,2,1035,8,6,2
1,6272,1,5,44,2,769,6,8,7
1,6272,1,6,11,2,1292,7,1,5
1,6272,1,7,16,2,725,4,8,2
1,6272,1,8,6,1,860,7,3,1
1,6272,2,1,34,2,797,2,4,1
1,6272,2,2,29,3,1206,3,1,2
1,6272,2,3,8,1,1615,1,7,5
1,6272,2,4,45,1,1001,7,6,8
1,6272,2,5,41,2,1335,8,5,7
1,6272,2,6,15,1,971,4,2,8
1,6272,2,7,5,2,850,7,1,3
1,6272,2,8,20,1,604,2,8,6
1,6272,3,1,31,1,411,1,2,4
1,6272,3,2,18,2,760,8,4,2
1,6272,3,3,43,1,442,6,7,8
1,6272,3,4,39,1,453,7,5,8
1,6272,3,5,9,3,520,5,1,7
1,6272,3,6,21,1,478,6,2,8
1,6272,3,7,28,2,639,2,3,1
1,6272,3,8,3,3,520,3,1,7
1,6272,4,1,38,1,882,5,8,7
1,6272,4,2,7,1,388,1,5,7
1,6272,4,3,25,1,449,1,2,3
1,6272,4,4,17,3,548,8,2,4
1,6272,4,5,46,2,649,7,8,6
1,6272,4,6,35,2,777,4,1,2
1,6272,4,7,19,1,417,2,6,8
1,6272,4,8,4,3,499,3,7,1
1,6272,5,1,33,1,465,2,1,4
1,6272,5,2,10,1,971,5,7,1
1,6272,5,3,1,3,829,1,3,7
1,6272,5,4,23,2,1058,8,2,6
1,6272,5,5,30,2,549,3,2,1
1,6272,5,6,13,3,995,2,4,8
1,6272,5,7,37,1,727,5,7,8
1,6272,5,8,47,1,414,8,6,7
1,6272,6,1,32,1,374,1,4,2
1,6272,6,2,27,1,426,2,1,3
1,6272,6,3,42,1,376,8,7,5
1,6272,6,4,14,1,367,2,8,4
1,6272,6,5,22,1,435,6,8,2
1,6272,6,6,12,1,415,7,5,1
1,6272,6,7,48,1,361,8,7,6
1,6272,6,8,2,1,344,1,7,3
1,6272,7,1,47,1,425,8,6,7
1,6272,7,2,9,1,449,5,1,7
1,6272,7,3,15,1,644,4,2,8
1,6272,7,4,41,1,1647,8,5,7
1,6272,7,5,25,1,510,1,2,3
1,6272,7,6,21,3,680,6,2,8
1,6272,7,7,33,3,783,2,1,4
1,6272,7,8,4,2,372,3,7,1
1,6272,8,1,46,2,429,7,8,6
1,6272,8,2,11,2,1688,7,1,5
1,6272,8,3,28,2,453,2,3,1
1,6272,8,4,34,2,344,2,4,1
1,6272,8,5,18,2,395,8,4,2
1,6272,8,6,22,2,449,6,8,2
1,6272,8,7,3,1,606,3,1,7
1,6272,8,8,38,2,807,5,8,7
1,6272,9,1,14,2,391,2,8,4
1,6272,9,2,44,2,436,6,8,7
1,6272,9,3,37,2,457,5,7,8
1,6272,9,4,31,1,369,1,2,4
1,6272,9,5,7,2,677,1,5,7
1,6272,9,6,1,3,430,1,3,7
1,6272,9,7,20,2,456,2,8,6
1,6272,9,8,30,1,464,3,2,1
1,6272,10,1,2,2,334,1,7,3
1,6272,10,2,26,2,372,1,3,2
1,6272,10,3,24,1,572,8,6,2
1,6272,10,4,45,2,541,7,6,8
1,6272,10,5,35,2,398,4,1,2
1,6272,10,6,8,2,382,1,7,5
1,6272,10,7,16,2,371,4,8,2
1,6272,10,8,42,2,337,8,7,5
1,6272,11,1,12,2,253,7,5,1
1,6272,11,2,19,1,130,2,6,8
1,6272,11,3,13,1,265,2,4,8
1,6272,11,4,40,1,321,7,8,5
1,6272,11,5,27,1,245,2,1,3
1,6272,11,6,32,2,184,1,4,2
1,6272,11,7,6,3,235,7,3,1
1,6272,11,8,48,2,204,8,7,6
1,6272,12,1,29,2,161,3,1,2
1,6272,12,2,23,2,113,8,2,6
1,6272,12,3,5,3,70,7,1,3
1,6272,12,4,10,2,100,5,7,1
1,6272,12,5,36,1,267,4,2,1
1,6272,12,6,17,2,114,8,2,4
1,6272,12,7,39,2,199,7,5,8
1,6272,12,8,43,3,169,6,7,8
1,6273,1,1,21,2,2246,6,2,8
1,6273,1,2,37,3,2250,5,7,8
1,6273,1,3,27,2,3346,2,1,3
1,6273,1,4,32,3,2475,1,4,2
1,6273,1,5,8,1,984,1,7,5
1,6273,1,6,48,3,1062,8,7,6
1,6273,1,7,1,3,821,1,3,7
1,6273,1,8,13,3,663,2,4,8
1,6273,2,1,31,2,1073,1,2,4
1,6273,2,2,29,3,637,3,1,2
1,6273,2,3,20,1,839,2,8,6
1,6273,2,4,11,2,1462,7,1,5
1,6273,2,5,18,1,627,8,4,2
1,6273,2,6,47,2,1184,8,6,7
1,6273,2,7,40,2,1719,7,8,5
1,6273,2,8,5,1,534,7,1,3
1,6273,3,1,15,3,746,4,2,8
1,6273,3,2,39,3,931,7,5,8
1,6273,3,3,3,3,497,3,1,7
1,6273,3,4,25,2,666,1,2,3
1,6273,3,5,23,2,594,8,2,6
1,6273,3,6,12,3,671,7,5,1
1,6273,3,7,46,2,1068,7,8,6
1,6273,3,8,35,3,584,4,1,2
1,6273,4,1,44,2,1239,6,8,7
1,6273,4,2,41,3,1549,8,5,7
1,6273,4,3,34,1,475,2,4,1
1,6273,4,4,30,2,594,3,2,1
1,6273,4,5,2,2,685,1,7,3
1,6273,4,6,7,1,931,1,5,7
1,6273,4,7,22,3,430,6,8,2
1,6273,4,8,17,2,483,8,2,4
1,6273,5,1,9,2,1071,5,1,7
1,6273,5,2,33,1,537,2,1,4
1,6273,5,3,19,1,580,2,6,8
1,6273,5,4,38,2,722,5,8,7
1,6273,5,5,45,2,1067,7,6,8
1,6273,5,6,16,3,571,4,8,2
1,6273,5,7,26,3,677,1,3,2
1,6273,5,8,4,3,852,3,7,1
1,6273,6,1,42,1,1621,8,7,5
1,6273,6,2,24,3,527,8,6,2
1,6273,6,3,36,2,391,4,2,1
1,6273,6,4,14,1,381,2,8,4
1,6273,6,5,6,3,1337,7,3,1
1,6273,6,6,28,1,550,2,3,1
1,6273,6,7,10,3,1587,5,7,1
1,6273,6,8,43,3,1153,6,7,8
1,6273,7,1,11,2,678,7,1,5
1,6273,7,2,31,2,417,1,2,4
1,6273,7,3,40,2,629,7,8,5
1,6273,7,4,5,2,418,7,1,3
1,6273,7,5,48,2,962,8,7,6
1,6273,7,6,21,2,410,6,2,8
1,6273,7,7,16,2,576,4,8,2
1,6273,7,8,29,3,524,3,1,2
1,6273,8,1,3,3,865,3,1,7
1,6273,8,2,33,1,557,2,1,4
1,6273,8,3,37,3,918,5,7,8
1,6273,8,4,45,3,479,7,6,8
1,6273,8,5,30,2,529,3,2,1
1,6273,8,6,19,1,375,2,6,8
1,6273,8,7,17,2,480,8,2,4
1,6273,8,8,9,2,614,5,1,7
1,6273,9,1,15,2,378,4,2,8
1,6273,9,2,42,2,532,8,7,5
1,6273,9,3,12,3,928,7,5,1
1,6273,9,4,28,1,447,2,3,1
1,6273,9,5,24,3,364,8,6,2
1,6273,9,6,32,3,729,1,4,2
1,6273,9,7,4,3,715,3,7,1
1,6273,9,8,44,2,1156,6,8,7
1,6273,10,1,1,1,426,1,3,7
1,6273,10,2,13,1,1000,2,4,8
1,6273,10,3,8,1,522,1,7,5
1,6273,10,4,38,2,654,5,8,7
1,6273,10,5,35,3,524,4,1,2
1,6273,10,6,20,1,379,2,8,6
1,6273,10,7,46,3,992,7,8,6
1,6273,10,8,26,3,548,1,3,2
1,6273,11,1,34,1,457,2,4,1
1,6273,11,2,18,3,621,8,4,2
1,6273,11,3,6,1,2005,7,3,1
1,6273,11,4,10,3,626,5,7,1
1,6273,11,5,27,1,461,2,1,3
1,6273,11,6,43,3,761,6,7,8
1,6273,11,7,23,2,453,8,2,6
1,6273,11,8,39,3,703,7,5,8
1,6273,12,1,25,2,554,1,2,3
1,6273,12,2,2,1,853,1,7,3
1,6273,12,3,14,1,507,2,8,4
1,6273,12,4,41,1,1773,8,5,7
1,6273,12,5,22,3,395,6,8,2
1,6273,12,6,7,1,495,1,5,7
1,6273,12,7,36,2,450,4,2,1
1,6273,12,8,47,1,1151,8,6,7
1,6278,1,1,17,3,4752,8,2,4
1,6278,1,2,41,3,1301,8,5,7
1,6278,1,3,21,2,3132,6,2,8
1,6278,1,4,11,1,2129,7,1,5
1,6278,1,5,35,2,1492,4,1,2
1,6278,1,6,3,3,1271,3,1,7
1,6278,1,7,46,1,1366,7,8,6
1,6278,1,8,25,3,1413,1,2,3
1,6278,2,1,4,2,1032,3,7,1
1,6278,2,2,22,1,1503,6,8,2
1,6278,2,3,33,2,1223,2,1,4
1,6278,2,4,40,1,1211,7,8,5
1,6278,2,5,27,3,950,2,1,3
1,6278,2,6,18,2,1956,8,4,2
1,6278,2,7,12,1,843,7,5,1
1,6278,2,8,44,3,909,6,8,7
1,6278,3,1,36,3,770,4,2,1
1,6278,3,2,39,1,641,7,5,8
1,6278,3,3,23,2,1238,8,2,6
1,6278,3,4,7,3,731,1,5,7
1,6278,3,5,29,1,1171,3,1,2
1,6278,3,6,45,1,754,7,6,8
1,6278,3,7,6,1,740,7,3,1
1,6278,3,8,16,2,820,4,8,2
1,6278,4,1,1,3,763,1,3,7
1,6278,4,2,43,2,576,6,7,8
1,6278,4,3,20,3,734,2,8,6
1,6278,4,4,30,2,1486,3,2,1
1,6278,4,5,38,2,1234,5,8,7
1,6278,4,6,32,1,1414,1,4,2
1,6278,4,7,13,3,1139,2,4,8
1,6278,4,8,9,3,963,5,1,7
1,6278,5,1,15,3,679,4,2,8
1,6278,5,2,5,1,894,7,1,3
1,6278,5,3,28,2,408,2,3,1
1,6278,5,4,37,2,461,5,7,8
1,6278,5,5,8,1,985,1,7,5
1,6278,5,6,34,3,1198,2,4,1
1,6278,5,7,47,3,453,8,6,7
1,6278,5,8,19,3,1239,2,6,8
1,6278,6,1,26,2,840,1,3,2
1,6278,6,2,42,3,1403,8,7,5
1,6278,6,3,2,2,715,1,7,3
1,6278,6,4,48,2,821,8,7,6
1,6278,6,5,31,1,997,1,2,4
1,6278,6,6,24,2,2157,8,6,2
1,6278,6,7,14,2,1861,2,8,4
1,6278,6,8,10,2,626,5,7,1
1,6278,7,1,25,3,536,1,2,3
1,6278,7,2,19,1,986,2,6,8
1,6278,7,3,1,3,546,1,3,7
1,6278,7,4,43,2,532,6,7,8
1,6278,7,5,15,3,534,4,2,8
1,6278,7,6,38,2,878,5,8,7
1,6278,7,7,7,1,850,1,5,7
1,6278,7,8,35,2,933,4,1,2
1,6278,8,1,30,3,602,3,2,1
1,6278,8,2,9,2,1425,5,1,7
1,6278,8,3,40,2,551,7,8,5
1,6278,8,4,4,3,865,3,7,1
1,6278,8,5,34,3,717,2,4,1
1,6278,8,6,24,2,1230,8,6,2
1,6278,8,7,16,2,843,4,8,2
1,6278,8,8,48,2,1273,8,7,6
1,6278,9,1,8,1,901,1,7,5
1,6278,9,2,3,3,673,3,1,7
1,6278,9,3,17,1,821,8,2,4
1,6278,9,4,27,2,261,2,1,3
1,6278,9,5,31,3,272,1,2,4
1,6278,9,6,45,1,202,7,6,8
1,6278,9,7,20,2,220,2,8,6
1,6278,9,8,42,3,193,8,7,5
1,6278,10,1,21,3,1412,6,2,8
1,6278,10,2,18,2,1076,8,4,2
1,6278,10,3,12,1,766,7,5,1
1,6278,10,4,26,3,1798,1,3,2
1,6278,10,5,41,1,834,8,5,7
1,6278,10,6,33,2,712,2,1,4
1,6278,10,7,6,3,1019,7,3,1
1,6278,10,8,44,3,808,6,8,7
1,6278,11,1,14,3,1518,2,8,4
1,6278,11,2,29,2,936,3,1,2
1,6278,11,3,36,3,1128,4,2,1
1,6278,11,4,11,3,2441,7,1,5
1,6278,11,5,46,1,771,7,8,6
1,6278,11,6,23,2,1136,8,2,6
1,6278,11,7,39,3,625,7,5,8
1,6278,11,8,2,3,933,1,7,3
1,6278,12,1,22,1,2012,6,8,2
1,6278,12,2,10,3,588,5,7,1
1,6278,12,3,13,3,880,2,4,8
1,6278,12,4,28,1,1065,2,3,1
1,6278,12,5,5,3,2867,7,1,3
1,6278,12,6,32,1,839,1,4,2
1,6278,12,7,47,3,595,8,6,7
1,6278,12,8,37,3,568,5,7,8
1,6279,1,1,15,1,11176,4,2,8
1,6279,1,2,43,2,907,6,7,8
1,6279,1,3,19,1,711,2,6,8
1,6279,1,4,27,2,1505,2,1,3
1,6279,1,5,7,1,1028,1,5,7
1,6279,1,6,34,3,876,2,4,1
1,6279,1,7,6,3,1250,7,3,1
1,6279,1,8,39,2,970,7,5,8
1,6279,2,1,9,2,1534,5,1,7
1,6279,2,2,33,2,959,2,1,4
1,6279,2,3,20,1,735,2,8,6
1,6279,2,4,37,3,963,5,7,8
1,6279,2,5,30,3,1039,3,2,1
1,6279,2,6,47,3,1063,8,6,7
1,6279,2,7,13,1,801,2,4,8
1,6279,2,8,1,1,997,1,3,7
1,6279,3,1,16,2,1350,4,8,2
1,6279,3,2,41,3,969,8,5,7
1,6279,3,3,3,2,1330,3,1,7
1,6279,3,4,12,3,872,7,5,1
1,6279,3,5,22,3,768,6,8,2
1,6279,3,6,46,3,965,7,8,6
1,6279,3,7,28,3,1177,2,3,1
1,6279,3,8,31,1,664,1,2,4
1,6279,4,1,11,2,826,7,1,5
1,6279,4,2,23,3,1696,8,2,6
1,6279,4,3,38,2,1421,5,8,7
1,6279,4,4,5,2,823,7,1,3
1,6279,4,5,17,3,839,8,2,4
1,6279,4,6,29,3,1443,3,1,2
1,6279,4,7,48,3,2365,8,7,6
1,6279,4,8,32,1,796,1,4,2
1,6279,5,1,26,1,551,1,3,2
1,6279,5,2,42,3,1330,8,7,5
1,6279,5,3,35,2,756,4,1,2
1,6279,5,4,2,1,664,1,7,3
1,6279,5,5,18,3,889,8,4,2
1,6279,5,6,21,2,728,6,2,8
1,6279,5,7,10,3,1085,5,7,1
1,6279,5,8,44,2,1277,6,8,7
1,6279,6,1,24,2,807,8,6,2
1,6279,6,2,25,1,623,1,2,3
1,6279,6,3,36,3,1227,4,2,1
1,6279,6,4,40,3,951,7,8,5
1,6279,6,5,45,1,1133,7,6,8
1,6279,6,6,8,1,892,1,7,5
1,6279,6,7,4,3,775,3,7,1
1,6279,6,8,14,2,1062,2,8,4
1,6279,7,1,38,3,1005,5,8,7
1,6279,7,2,22,3,1050,6,8,2
1,6279,7,3,10,3,783,5,7,1
1,6279,7,4,34,3,777,2,4,1
1,6279,7,5,47,3,897,8,6,7
1,6279,7,6,6,1,859,7,3,1
1,6279,7,7,26,1,895,1,3,2
1,6279,7,8,16,2,936,4,8,2
1,6279,8,1,33,2,625,2,1,4
1,6279,8,2,25,1,723,1,2,3
1,6279,8,3,11,2,571,7,1,5
1,6279,8,4,19,1,1021,2,6,8
1,6279,8,5,46,3,1162,7,8,6
1,6279,8,6,17,2,623,8,2,4
1,6279,8,7,2,1,553,1,7,3
1,6279,8,8,39,2,801,7,5,8
1,6279,9,1,45,1,1216,7,6,8
1,6279,9,2,5,2,605,7,1,3
1,6279,9,3,35,2,700,4,1,2
1,6279,9,4,9,2,525,5,1,7
1,6279,9,5,21,2,629,6,2,8
1,6279,9,6,29,2,818,3,1,2
1,6279,9,7,41,3,656,8,5,7
1,6279,9,8,14,1,512,2,8,4
1,6279,10,1,31,1,571,1,2,4
1,6279,10,2,20,1,669,2,8,6
1,6279,10,3,18,3,688,8,4,2
1,6279,10,4,37,2,1401,5,7,8
1,6279,10,5,48,3,1588,8,7,6
1,6279,10,6,7,1,545,1,5,7
1,6279,10,7,27,1,1454,2,1,3
1,6279,10,8,3,3,610,3,1,7
1,6279,11,1,12,3,839,7,5,1
1,6279,11,2,15,1,886,4,2,8
1,6279,11,3,23,2,895,8,2,6
1,6279,11,4,40,3,1409,7,8,5
1,6279,11,5,43,2,767,6,7,8
1,6279,11,6,4,2,1038,3,7,1
1,6279,11,7,30,1,733,3,2,1
1,6279,11,8,36,2,661,4,2,1
1,6279,12,1,28,3,1209,2,3,1
1,6279,12,2,42,3,1174,8,7,5
1,6279,12,3,13,1,572,2,4,8
1,6279,12,4,32,1,788,1,4,2
1,6279,12,5,8,1,1046,1,7,5
1,6279,12,6,1,3,1722,1,3,7
1,6279,12,7,44,1,716,6,8,7
1,6279,12,8,24,3,1334,8,6,2
2,6232,1,1,12,3,451,7,5,1
2,6232,1,2,14,2,434,2,8,4
2,6232,1,3,44,3,359,6,8,7
2,6232,1,4,39,3,513,7,5,8
2,6232,1,5,26,3,842,1,3,2
2,6232,1,6,36,3,428,4,2,1
2,6232,1,7,2,2,300,1,7,3
2,6232,1,8,22,3,390,6,8,2
2,6232,2,1,3,3,330,3,1,7
2,6232,2,2,35,2,301,4,1,2
2,6232,2,3,17,1,306,8,2,4
2,6232,2,4,37,2,374,5,7,8
2,6232,2,5,29,3,846,3,1,2
2,6232,2,6,21,3,311,6,2,8
2,6232,2,7,8,1,284,1,7,5
2,6232,2,8,47,3,305,8,6,7
2,6232,3,1,15,3,279,4,2,8
2,6232,3,2,5,1,317,7,1,3
2,6232,3,3,9,3,430,5,1,7
2,6232,3,4,23,2,268,8,2,6
2,6232,3,5,38,2,287,5,8,7
2,6232,3,6,31,1,1416,1,2,4
2,6232,3,7,30,2,320,3,2,1
2,6232,3,8,43,2,293,6,7,8
2,6232,4,1,16,3,340,4,8,2
2,6232,4,2,33,2,329,2,1,4
2,6232,4,3,11,2,552,7,1,5
2,6232,4,4,20,1,892,2,8,6
2,6232,4,5,42,1,809,8,7,5
2,6232,4,6,25,2,317,1,2,3
2,6232,4,7,48,2,835,8,7,6
2,6232,4,8,1,3,1234,1,3,7
2,6232,5,1,7,1,608,1,5,7
2,6232,5,2,13,3,344,2,4,8
2,6232,5,3,34,3,1038,2,4,1
2,6232,5,4,19,3,669,2,6,8
2,6232,5,5,41,1,340,8,5,7
2,6232,5,6,27,1,228,2,1,3
2,6232,5,7,4,2,436,3,7,1
2,6232,5,8,45,1,275,7,6,8
2,6232,6,1,24,3,275,8,6,2
2,6232,6,2,18,1,272,8,4,2
2,6232,6,3,40,2,904,7,8,5
2,6232,6,4,46,1,273,7,8,6
2,6232,6,5,10,3,306,5,7,1
2,6232,6,6,28,1,2921,2,3,1
2,6232,6,7,6,1,348,7,3,1
2,6232,6,8,32,1,338,1,4,2
2,6232,7,1,48,2,295,8,7,6
2,6232,7,2,14,2,329,2,8,4
2,6232,7,3,35,2,320,4,1,2
2,6232,7,4,3,3,456,3,1,7
2,6232,7,5,25,3,3953,1,2,3
2,6232,7,6,39,3,1023,7,5,8
2,6232,7,7,22,2,252,6,8,2
2,6232,7,8,9,3,291,5,1,7
2,6232,8,1,30,2,377,3,2,1
2,6232,8,2,11,3,782,7,1,5
2,6232,8,3,15,3,368,4,2,8
2,6232,8,4,1,3,422,1,3,7
2,6232,8,5,32,1,212,1,4,2
2,6232,8,6,47,3,390,8,6,7
2,6232,8,7,37,3,296,5,7,8
2,6232,8,8,19,1,242,2,6,8
2,6232,9,1,41,1,214,8,5,7
2,6232,9,2,17,1,316,8,2,4
2,6232,9,3,10,3,270,5,7,1
2,6232,9,4,29,3,264,3,1,2
2,6232,9,5,4,2,323,3,7,1
2,6232,9,6,36,3,280,4,2,1
2,6232,9,7,46,1,242,7,8,6
2,6232,9,8,21,2,307,6,2,8
2,6232,10,1,43,2,240,6,7,8
2,6232,10,2,31,1,206,1,2,4
2,6232,10,3,42,1,189,8,7,5
2,6232,10,4,18,1,212,8,4,2
2,6232,10,5,5,1,941,7,1,3
2,6232,10,6,8,1,373,1,7,5
2,6232,10,7,28,1,235,2,3,1
2,6232,10,8,23,2,534,8,2,6
2,6232,11,1,16,2,248,4,8,2
2,6232,11,2,7,1,7,1,5,7
2,6232,11,3,20,1,269,2,8,6
2,6232,11,4,44,3,339,6,8,7
2,6232,11,5,33,2,280,2,1,4
2,6232,11,6,26,3,612,1,3,2
2,6232,11,7,6,1,672,7,3,1
2,6232,11,8,40,2,236,7,8,5
2,6232,12,1,24,1,155,8,6,2
2,6232,12,2,12,3,260,7,5,1
2,6232,12,3,38,2,360,5,8,7
2,6232,12,4,2,2,312,1,7,3
2,6232,12,5,34,3,1463,2,4,1
2,6232,12,6,13,3,769,2,4,8
2,6232,12,7,27,1,422,2,1,3
2,6232,12,8,45,3,1233,7,6,8
2,6233,1,1,31,1,471,1,2,4
2,6233,1,2,16,2,291,4,8,2
2,6233,1,3,37,3,292,5,7,8
2,6233,1,4,47,1,251,8,6,7
2,6233,1,5,1,3,245,1,3,7
2,6233,1,6,9,2,249,5,1,7
2,6233,1,7,28,1,276,2,3,1
2,6233,1,8,23,2,301,8,2,6
2,6233,2,1,43,3,505,6,7,8
2,6233,2,2,12,3,283,7,5,1
2,6233,2,3,25,2,247,1,2,3
2,6233,2,4,14,2,268,2,8,4
2,6233,2,5,38,2,272,5,8,7
2,6233,2,6,33,2,268,2,1,4
2,6233,2,7,3,3,287,3,1,7
2,6233,2,8,24,3,242,8,6,2
2,6233,3,1,44,2,290,6,8,7
2,6233,3,2,21,2,291,6,2,8
2,6233,3,3,4,3,278,3,7,1
2,6233,3,4,8,1,274,1,7,5
2,6233,3,5,39,3,285,7,5,8
2,6233,3,6,13,3,249,2,4,8
2,6233,3,7,34,3,287,2,4,1
2,6233,3,8,29,3,314,3,1,2
2,6233,4,1,42,1,260,8,7,5
2,6233,4,2,11,1,416,7,1,5
2,6233,4,3,15,3,367,4,2,8
2,6233,4,4,30,2,249,3,2,1
2,6233,4,5,20,1,244,2,8,6
2,6233,4,6,46,2,238,7,8,6
2,6233,4,7,32,3,772,1,4,2
2,6233,4,8,2,2,267,1,7,3
2,6233,5,1,17,1,292,8,2,4
2,6233,5,2,5,1,319,7,1,3
2,6233,5,3,10,3,632,5,7,1
2,6233,5,4,22,3,309,6,8,2
2,6233,5,5,26,3,248,1,3,2
2,6233,5,6,40,2,259,7,8,5
2,6233,5,7,36,2,263,4,2,1
2,6233,5,8,45,3,292,7,6,8
2,6233,6,1,18,1,293,8,4,2
2,6233,6,2,35,3,328,4,1,2
2,6233,6,3,48,2,282,8,7,6
2,6233,6,4,7,1,268,1,5,7
2,6233,6,5,19,1,424,2,6,8
2,6233,6,6,27,1,272,2,1,3
2,6233,6,7,41,1,220,8,5,7
2,6233,6,8,6,1,235,7,3,1
2,6233,7,1,25,2,296,1,2,3
2,6233,7,2,47,1,233,8,6,7
2,6233,7,3,21,2,286,6,2,8
2,6233,7,4,14,2,249,2,8,4
2,6233,7,5,9,2,222,5,1,7
2,6233,7,6,36,2,699,4,2,1
2,6233,7,7,42,1,229,8,7,5
2,6233,7,8,3,3,778,3,1,7
2,6233,8,1,39,3,262,7,5,8
2,6233,8,2,20,1,259,2,8,6
2,6233,8,3,44,3,343,6,8,7
2,6233,8,4,18,1,296,8,4,2
2,6233,8,5,7,1,244,1,5,7
2,6233,8,6,34,3,306,2,4,1
2,6233,8,7,1,3,266,1,3,7
2,6233,8,8,28,1,247,2,3,1
2,6233,9,1,41,1,275,8,5,7
2,6233,9,2,46,2,886,7,8,6
2,6233,9,3,31,2,298,1,2,4
2,6233,9,4,30,2,268,3,2,1
2,6233,9,5,4,2,248,3,7,1
2,6233,9,6,19,3,2491,2,6,8
2,6233,9,7,12,3,266,7,5,1
2,6233,9,8,13,3,292,2,4,8
2,6233,10,1,11,2,535,7,1,5
2,6233,10,2,29,3,464,3,1,2
2,6233,10,3,35,2,841,4,1,2
2,6233,10,4,45,2,817,7,6,8
2,6233,10,5,17,1,278,8,2,4
2,6233,10,6,38,2,282,5,8,7
2,6233,10,7,6,1,324,7,3,1
2,6233,10,8,22,2,256,6,8,2
2,6233,11,1,10,3,303,5,7,1
2,6233,11,2,48,2,1191,8,7,6
2,6233,11,3,15,3,254,4,2,8
2,6233,11,4,33,2,291,2,1,4
2,6233,11,5,37,3,268,5,7,8
2,6233,11,6,26,3,605,1,3,2
2,6233,11,7,24,1,5319,8,6,2
2,6233,11,8,2,2,455,1,7,3
2,6233,12,1,8,1,351,1,7,5
2,6233,12,2,32,1,318,1,4,2
2,6233,12,3,27,1,515,2,1,3
2,6233,12,4,40,2,464,7,8,5
2,6233,12,5,43,2,516,6,7,8
2,6233,12,6,5,1,253,7,1,3
2,6233,12,7,16,2,447,4,8,2
2,6233,12,8,23,2,318,8,2,6
2,6234,1,1,38,2,735,5,8,7
2,6234,1,2,30,2,296,3,2,1
2,6234,1,3,33,3,337,2,1,4
2,6234,1,4,17,1,241,8,2,4
2,6234,1,5,22,2,244,6,8,2
2,6234,1,6,2,2,281,1,7,3
2,6234,1,7,46,1,348,7,8,6
2,6234,1,8,9,2,347,5,1,7
2,6234,2,1,44,3,296,6,8,7
2,6234,2,2,42,1,234,8,7,5
2,6234,2,3,16,2,231,4,8,2
2,6234,2,4,3,3,428,3,1,7
2,6234,2,5,27,1,316,2,1,3
2,6234,2,6,8,2,269,1,7,5
2,6234,2,7,24,3,337,8,6,2
2,6234,2,8,34,3,394,2,4,1
2,6234,3,1,12,3,338,7,5,1
2,6234,3,2,45,1,355,7,6,8
2,6234,3,3,32,1,249,1,4,2
2,6234,3,4,14,2,429,2,8,4
2,6234,3,5,23,2,272,8,2,6
2,6234,3,6,5,1,324,7,1,3
2,6234,3,7,37,3,270,5,7,8
2,6234,3,8,26,1,233,1,3,2
2,6234,4,1,39,3,401,7,5,8
2,6234,4,2,25,1,336,1,2,3
2,6234,4,3,6,1,290,7,3,1
2,6234,4,4,18,1,323,8,4,2
2,6234,4,5,20,1,508,2,8,6
2,6234,4,6,36,3,292,4,2,1
2,6234,4,7,7,1,326,1,5,7
2,6234,4,8,43,2,391,6,7,8
2,6234,5,1,21,2,260,6,2,8
2,6234,5,2,1,3,545,1,3,7
2,6234,5,3,10,3,339,5,7,1
2,6234,5,4,31,1,323,1,2,4
2,6234,5,5,28,3,197,2,3,1
2,6234,5,6,48,2,198,8,7,6
2,6234,5,7,15,3,188,4,2,8
2,6234,5,8,40,2,266,7,8,5
2,6234,6,1,29,3,236,3,1,2
2,6234,6,2,35,2,298,4,1,2
2,6234,6,3,41,1,261,8,5,7
2,6234,6,4,4,2,217,3,7,1
2,6234,6,5,19,1,272,2,6,8
2,6234,6,6,13,3,291,2,4,8
2,6234,6,7,11,2,276,7,1,5
2,6234,6,8,47,3,232,8,6,7
2,6234,7,1,22,2,10,6,8,2
2,6234,7,2,44,3,199,6,8,7
2,6234,7,3,6,1,208,7,3,1
2,6234,7,4,42,1,233,8,7,5
2,6234,7,5,32,1,208,1,4,2
2,6234,7,6,30,2,190,3,2,1
2,6234,7,7,18,1,307,8,4,2
2,6234,7,8,10,3,251,5,7,1
2,6234,8,1,48,2,302,8,7,6
2,6234,8,2,11,2,964,7,1,5
2,6234,8,3,14,2,206,2,8,4
2,6234,8,4,36,3,237,4,2,1
2,6234,8,5,21,2,211,6,2,8
2,6234,8,6,26,3,321,1,3,2
2,6234,8,7,2,2,307,1,7,3
2,6234,8,8,38,2,311,5,8,7
2,6234,9,1,12,3,320,7,5,1
2,6234,9,2,19,3,283,2,6,8
2,6234,9,3,45,1,311,7,6,8
2,6234,9,4,39,3,272,7,5,8
2,6234,9,5,16,2,260,4,8,2
2,6234,9,6,3,3,192,3,1,7
2,6234,9,7,28,3,189,2,3,1
2,6234,9,8,34,3,224,2,4,1
2,6234,10,1,1,3,1145,1,3,7
2,6234,10,2,24,3,227,8,6,2
2,6234,10,3,7,1,266,1,5,7
2,6234,10,4,43,2,237,6,7,8
2,6234,10,5,33,2,201,2,1,4
2,6234,10,6,37,3,248,5,7,8
2,6234,10,7,25,2,229,1,2,3
2,6234,10,8,15,3,257,4,2,8
2,6234,11,1,5,1,345,7,1,3
2,6234,11,2,35,2,289,4,1,2
2,6234,11,3,47,3,386,8,6,7
2,6234,11,4,27,1,266,2,1,3
2,6234,11,5,17,1,222,8,2,4
2,6234,11,6,40,2,237,7,8,5
2,6234,11,7,23,2,243,8,2,6
2,6234,11,8,9,2,296,5,1,7
2,6234,12,1,31,1,241,1,2,4
2,6234,12,2,29,3,238,3,1,2
2,6234,12,3,8,1,334,1,7,5
2,6234,12,4,4,2,224,3,7,1
2,6234,12,5,46,1,310,7,8,6
2,6234,12,6,20,1,257,2,8,6
2,6234,12,7,13,3,294,2,4,8
2,6234,12,8,41,1,819,8,5,7
2,6238,1,1,21,2,522,6,2,8
2,6238,1,2,35,2,337,4,1,2
2,6238,1,3,4,2,873,3,7,1
2,6238,1,4,12,3,358,7,5,1
2,6238,1,5,42,1,658,8,7,5
2,6238,1,6,13,3,483,2,4,8
2,6238,1,7,27,1,343,2,1,3
2,6238,1,8,44,2,479,6,8,7
2,6238,2,1,36,2,376,4,2,1
2,6238,2,2,14,2,320,2,8,4
2,6238,2,3,28,1,363,2,3,1
2,6238,2,4,48,1,331,8,7,6
2,6238,2,5,22,2,278,6,8,2
2,6238,2,6,8,2,446,1,7,5
2,6238,2,7,39,3,315,7,5,8
2,6238,2,8,1,3,368,1,3,7
2,6238,3,1,20,2,225,2,8,6
2,6238,3,2,18,1,276,8,4,2
2,6238,3,3,31,1,465,1,2,4
2,6238,3,4,38,2,527,5,8,7
2,6238,3,5,9,2,661,5,1,7
2,6238,3,6,26,3,395,1,3,2
2,6238,3,7,2,2,380,1,7,3
2,6238,3,8,45,3,678,7,6,8
2,6238,4,1,40,2,268,7,8,5
2,6238,4,2,43,3,482,6,7,8
2,6238,4,3,33,2,356,2,1,4
2,6238,4,4,16,2,365,4,8,2
2,6238,4,5,25,2,302,1,2,3
2,6238,4,6,7,1,483,1,5,7
2,6238,4,7,23,2,689,8,2,6
2,6238,4,8,6,1,1567,7,3,1
2,6238,5,1,17,1,328,8,2,4
2,6238,5,2,29,3,674,3,1,2
2,6238,5,3,34,3,454,2,4,1
2,6238,5,4,10,3,399,5,7,1
2,6238,5,5,19,1,745,2,6,8
2,6238,5,6,37,3,444,5,7,8
2,6238,5,7,47,1,572,8,6,7
2,6238,5,8,3,3,967,3,1,7
2,6238,6,1,30,2,265,3,2,1
2,6238,6,2,11,2,311,7,1,5
2,6238,6,3,32,1,346,1,4,2
2,6238,6,4,46,2,1006,7,8,6
2,6238,6,5,24,3,862,8,6,2
2,6238,6,6,41,2,660,8,5,7
2,6238,6,7,15,3,688,4,2,8
2,6238,6,8,5,1,406,7,1,3
2,6238,7,1,35,1,1931,4,1,2
2,6238,7,2,7,1,419,1,5,7
2,6238,7,3,2,2,325,1,7,3
2,6238,7,4,20,2,575,2,8,6
2,6238,7,5,17,1,383,8,2,4
2,6238,7,6,29,3,576,3,1,2
2,6238,7,7,40,2,426,7,8,5
2,6238,7,8,48,2,362,8,7,6
2,6238,8,1,30,2,549,3,2,1
2,6238,8,2,46,2,288,7,8,6
2,6238,8,3,38,2,571,5,8,7
2,6238,8,4,10,3,443,5,7,1
2,6238,8,5,3,3,395,3,1,7
2,6238,8,6,36,3,817,4,2,1
2,6238,8,7,22,3,585,6,8,2
2,6238,8,8,15,3,265,4,2,8
2,6238,9,1,44,3,1496,6,8,7
2,6238,9,2,13,3,304,2,4,8
2,6238,9,3,42,1,426,8,7,5
2,6238,9,4,23,1,537,8,2,6
2,6238,9,5,11,2,401,7,1,5
2,6238,9,6,34,3,735,2,4,1
2,6238,9,7,5,1,535,7,1,3
2,6238,9,8,28,1,544,2,3,1
2,6238,10,1,8,1,434,1,7,5
2,6238,10,2,14,2,408,2,8,4
2,6238,10,3,39,3,833,7,5,8
2,6238,10,4,21,2,543,6,2,8
2,6238,10,5,26,3,769,1,3,2
2,6238,10,6,32,1,362,1,4,2
2,6238,10,7,47,1,1025,8,6,7
2,6238,10,8,4,2,1169,3,7,1
2,6238,11,1,24,3,413,8,6,2
2,6238,11,2,31,1,387,1,2,4
2,6238,11,3,25,2,386,1,2,3
2,6238,11,4,6,1,282,7,3,1
2,6238,11,5,43,3,306,6,7,8
2,6238,11,6,37,3,253,5,7,8
2,6238,11,7,16,2,283,4,8,2
2,6238,11,8,12,1,958,7,5,1
2,6238,12,1,27,3,1326,2,1,3
2,6238,12,2,45,3,393,7,6,8
2,6238,12,3,9,2,433,5,1,7
2,6238,12,4,41,1,345,8,5,7
2,6238,12,5,19,3,796,2,6,8
2,6238,12,6,1,3,378,1,3,7
2,6238,12,7,18,1,517,8,4,2
2,6238,12,8,33,3,993,2,1,4
2,6240,1,1,33,2,1023,2,1,4
2,6240,1,2,3,3,303,3,1,7
2,6240,1,3,39,1,313,7,5,8
2,6240,1,4,20,1,897,2,8,6
2,6240,1,5,13,3,290,2,4,8
2,6240,1,6,11,1,469,7,1,5
2,6240,1,7,43,3,384,6,7,8
2,6240,1,8,30,2,212,3,2,1
2,6240,2,1,22,3,249,6,8,2
2,6240,2,2,48,2,237,8,7,6
2,6240,2,3,35,2,456,4,1,2
2,6240,2,4,37,3,269,5,7,8
2,6240,2,5,28,1,313,2,3,1
2,6240,2,6,8,1,275,1,7,5
2,6240,2,7,6,1,653,7,3,1
2,6240,2,8,16,2,450,4,8,2
2,6240,3,1,44,3,24,6,8,7
2,6240,3,2,40,1,287,7,8,5
2,6240,3,3,2,2,162,1,7,3
2,6240,3,4,17,1,282,8,2,4
2,6240,3,5,27,1,964,2,1,3
2,6240,3,6,9,2,412,5,1,7
2,6240,3,7,31,1,250,1,2,4
2,6240,3,8,23,1,604,8,2,6
2,6240,4,1,45,1,579,7,6,8
2,6240,4,2,32,1,565,1,4,2
2,6240,4,3,38,2,266,5,8,7
2,6240,4,4,7,1,409,1,5,7
2,6240,4,5,18,1,884,8,4,2
2,6240,4,6,1,3,407,1,3,7
2,6240,4,7,24,1,560,8,6,2
2,6240,4,8,25,2,285,1,2,3
2,6240,5,1,4,2,529,3,7,1
2,6240,5,2,46,1,413,7,8,6
2,6240,5,3,26,3,360,1,3,2
2,6240,5,4,42,1,234,8,7,5
2,6240,5,5,19,1,283,2,6,8
2,6240,5,6,15,3,1242,4,2,8
2,6240,5,7,36,2,498,4,2,1
2,6240,5,8,10,3,233,5,7,1
2,6240,6,1,14,1,403,2,8,4
2,6240,6,2,29,3,201,3,1,2
2,6240,6,3,47,3,384,8,6,7
